 485   2  14
    PositionX     PositionY     VelocityX     VelocityY AccelerationX AccelerationY
 -1.91193E-02  -2.59761E-01   3.87763E+00   6.68799E-01  -1.28512E-01   1.61666E+00
 -1.52418E-02  -2.59091E-01   3.87746E+00   6.70946E-01  -2.15954E-01   2.67669E+00
 -1.13644E-02  -2.58419E-01   3.87720E+00   6.74153E-01  -3.48772E-01   4.25419E+00
 -7.48736E-03  -2.57743E-01   3.87676E+00   6.79454E-01  -5.31765E-01   6.31934E+00
 -3.61086E-03  -2.57060E-01   3.87614E+00   6.86791E-01  -7.27888E-01   8.31631E+00
  2.64916E-04  -2.56369E-01   3.87531E+00   6.96087E-01  -9.45364E-01   1.02299E+01
  4.13976E-03  -2.55668E-01   3.87425E+00   7.07251E-01  -1.19485E+00   1.20478E+01
  8.01341E-03  -2.54955E-01   3.87292E+00   7.20183E-01  -1.48965E+00   1.37600E+01
  1.18856E-02  -2.54227E-01   3.87127E+00   7.34771E-01  -1.84551E+00   1.53574E+01
  1.57559E-02  -2.53485E-01   3.86923E+00   7.50897E-01  -2.27991E+00   1.68316E+01
  1.96240E-02  -2.52726E-01   3.86671E+00   7.68434E-01  -2.81037E+00   1.81749E+01
  2.34894E-02  -2.51948E-01   3.86361E+00   7.87247E-01  -3.45246E+00   1.93808E+01
  2.73513E-02  -2.51151E-01   3.85980E+00   8.07196E-01  -4.21788E+00   2.04442E+01
  3.12090E-02  -2.50334E-01   3.85517E+00   8.28136E-01  -5.11338E+00   2.13618E+01
  3.50616E-02  -2.49495E-01   3.84958E+00   8.49920E-01  -6.14072E+00   2.21325E+01
  3.89081E-02  -2.48634E-01   3.84289E+00   8.72401E-01  -7.29766E+00   2.27572E+01
  4.27474E-02  -2.47750E-01   3.83498E+00   8.95434E-01  -8.57968E+00   2.32385E+01
  4.65781E-02  -2.46843E-01   3.82573E+00   9.18878E-01  -9.98170E+00   2.35804E+01
  5.03988E-02  -2.45912E-01   3.81502E+00   9.42595E-01  -1.14995E+01   2.37876E+01
  5.42081E-02  -2.44958E-01   3.80273E+00   9.66453E-01  -1.31299E+01   2.38653E+01
  5.80043E-02  -2.43979E-01   3.78876E+00   9.90325E-01  -1.48703E+01   2.38187E+01
  6.17856E-02  -2.42977E-01   3.77299E+00   1.01409E+00  -1.67169E+01   2.36529E+01
  6.55503E-02  -2.41951E-01   3.75532E+00   1.03763E+00  -1.86628E+01   2.33724E+01
  6.92963E-02  -2.40902E-01   3.73566E+00   1.06084E+00  -2.06972E+01   2.29812E+01
  7.30216E-02  -2.39830E-01   3.71393E+00   1.08359E+00  -2.28044E+01   2.24830E+01
  7.67241E-02  -2.38735E-01   3.69006E+00   1.10580E+00  -2.49649E+01   2.18807E+01
  8.04017E-02  -2.37618E-01   3.66400E+00   1.12735E+00  -2.71575E+01   2.11770E+01
  8.40521E-02  -2.36480E-01   3.63574E+00   1.14816E+00  -2.93603E+01   2.03742E+01
  8.76732E-02  -2.35322E-01   3.60528E+00   1.16810E+00  -3.15526E+01   1.94749E+01
  9.12627E-02  -2.34144E-01   3.57264E+00   1.18710E+00  -3.37156E+01   1.84818E+01
  9.48185E-02  -2.32947E-01   3.53785E+00   1.20507E+00  -3.58317E+01   1.73983E+01
  9.83384E-02  -2.31734E-01   3.50097E+00   1.22190E+00  -3.78843E+01   1.62285E+01
  1.01820E-01  -2.30504E-01   3.46208E+00   1.23752E+00  -3.98580E+01   1.49767E+01
  1.05263E-01  -2.29259E-01   3.42126E+00   1.25185E+00  -4.17388E+01   1.36477E+01
  1.08663E-01  -2.28000E-01   3.37860E+00   1.26482E+00  -4.35149E+01   1.22463E+01
  1.12020E-01  -2.26729E-01   3.33423E+00   1.27635E+00  -4.51772E+01   1.07779E+01
  1.15331E-01  -2.25447E-01   3.28825E+00   1.28638E+00  -4.67192E+01   9.24815E+00
  1.18596E-01  -2.24156E-01   3.24079E+00   1.29484E+00  -4.81363E+01   7.66324E+00
  1.21813E-01  -2.22858E-01   3.19197E+00   1.30170E+00  -4.94248E+01   6.02970E+00
  1.24980E-01  -2.21553E-01   3.14194E+00   1.30690E+00  -5.05808E+01   4.35421E+00
  1.28097E-01  -2.20244E-01   3.09081E+00   1.31041E+00  -5.16002E+01   2.64340E+00
  1.31162E-01  -2.18932E-01   3.03874E+00   1.31219E+00  -5.24792E+01   9.03820E-01
  1.34174E-01  -2.17619E-01   2.98585E+00   1.31222E+00  -5.32148E+01  -8.57905E-01
  1.37134E-01  -2.16308E-01   2.93231E+00   1.31047E+00  -5.38056E+01  -2.63477E+00
  1.40039E-01  -2.14998E-01   2.87824E+00   1.30695E+00  -5.42515E+01  -4.41902E+00
  1.42890E-01  -2.13694E-01   2.82381E+00   1.30164E+00  -5.45544E+01  -6.20192E+00
  1.45687E-01  -2.12395E-01   2.76913E+00   1.29454E+00  -5.47170E+01  -7.97372E+00
  1.48428E-01  -2.11105E-01   2.71437E+00   1.28569E+00  -5.47433E+01  -9.72395E+00
  1.51115E-01  -2.09824E-01   2.65965E+00   1.27510E+00  -5.46372E+01  -1.14420E+01
  1.53748E-01  -2.08554E-01   2.60510E+00   1.26280E+00  -5.44017E+01  -1.31178E+01
  1.56325E-01  -2.07298E-01   2.55084E+00   1.24886E+00  -5.40380E+01  -1.47418E+01
  1.58849E-01  -2.06057E-01   2.49702E+00   1.23332E+00  -5.35451E+01  -1.63048E+01
  1.61320E-01  -2.04832E-01   2.44375E+00   1.21625E+00  -5.29195E+01  -1.77976E+01
  1.63737E-01  -2.03624E-01   2.39118E+00   1.19773E+00  -5.21564E+01  -1.92103E+01
  1.66102E-01  -2.02436E-01   2.33944E+00   1.17783E+00  -5.12509E+01  -2.05318E+01
  1.68416E-01  -2.01269E-01   2.28868E+00   1.15666E+00  -5.01984E+01  -2.17507E+01
  1.70679E-01  -2.00123E-01   2.23904E+00   1.13433E+00  -4.89964E+01  -2.28561E+01
  1.72894E-01  -1.99000E-01   2.19069E+00   1.11095E+00  -4.76438E+01  -2.38390E+01
  1.75061E-01  -1.97901E-01   2.14376E+00   1.08665E+00  -4.61418E+01  -2.46933E+01
  1.77181E-01  -1.96827E-01   2.09840E+00   1.06156E+00  -4.44933E+01  -2.54166E+01
  1.79257E-01  -1.95778E-01   2.05477E+00   1.03582E+00  -4.27030E+01  -2.60107E+01
  1.81291E-01  -1.94755E-01   2.01300E+00   1.00954E+00  -4.07774E+01  -2.64815E+01
  1.83283E-01  -1.93759E-01   1.97322E+00   9.82855E-01  -3.87254E+01  -2.68380E+01
  1.85237E-01  -1.92789E-01   1.93555E+00   9.55866E-01  -3.65585E+01  -2.70918E+01
  1.87154E-01  -1.91847E-01   1.90010E+00   9.28671E-01  -3.42911E+01  -2.72558E+01
  1.89037E-01  -1.90932E-01   1.86696E+00   9.01354E-01  -3.19402E+01  -2.73427E+01
  1.90888E-01  -1.90044E-01   1.83622E+00   8.73986E-01  -2.95242E+01  -2.73638E+01
  1.92710E-01  -1.89184E-01   1.80792E+00   8.46627E-01  -2.70620E+01  -2.73284E+01
  1.94504E-01  -1.88351E-01   1.78209E+00   8.19329E-01  -2.45717E+01  -2.72434E+01
  1.96274E-01  -1.87545E-01   1.75877E+00   7.92140E-01  -2.20701E+01  -2.71141E+01
  1.98022E-01  -1.86767E-01   1.73795E+00   7.65101E-01  -1.95725E+01  -2.69451E+01
  1.99750E-01  -1.86015E-01   1.71963E+00   7.38250E-01  -1.70926E+01  -2.67407E+01
  2.01461E-01  -1.85290E-01   1.70377E+00   7.11620E-01  -1.46430E+01  -2.65060E+01
  2.03158E-01  -1.84592E-01   1.69034E+00   6.85238E-01  -1.22360E+01  -2.62465E+01
  2.04842E-01  -1.83920E-01   1.67930E+00   6.59127E-01  -9.88342E+00  -2.59690E+01
  2.06516E-01  -1.83274E-01   1.67058E+00   6.33300E-01  -7.59790E+00  -2.56810E+01
  2.08183E-01  -1.82653E-01   1.66410E+00   6.07765E-01  -5.39251E+00  -2.53917E+01
  2.09844E-01  -1.82058E-01   1.65979E+00   5.82517E-01  -3.28055E+00  -2.51117E+01
  2.11502E-01  -1.81488E-01   1.65754E+00   5.57541E-01  -1.27476E+00  -2.48526E+01
  2.13159E-01  -1.80943E-01   1.65724E+00   5.32811E-01   6.13287E-01  -2.46271E+01
  2.14817E-01  -1.80422E-01   1.65877E+00   5.08287E-01   2.37340E+00  -2.44474E+01
  2.16477E-01  -1.79926E-01   1.66199E+00   4.83916E-01   3.99645E+00  -2.43252E+01
  2.18141E-01  -1.79455E-01   1.66676E+00   4.59637E-01   5.47386E+00  -2.42704E+01
  2.19810E-01  -1.79007E-01   1.67294E+00   4.35376E-01   6.79728E+00  -2.42912E+01
  2.21487E-01  -1.78584E-01   1.68035E+00   4.11054E-01   7.95865E+00  -2.43934E+01
  2.23171E-01  -1.78185E-01   1.68885E+00   3.86589E-01   8.95077E+00  -2.45811E+01
  2.24865E-01  -1.77811E-01   1.69826E+00   3.61892E-01   9.76778E+00  -2.48568E+01
  2.26568E-01  -1.77461E-01   1.70839E+00   3.36875E-01   1.04056E+01  -2.52214E+01
  2.28281E-01  -1.77137E-01   1.71907E+00   3.11449E-01   1.08616E+01  -2.56751E+01
  2.30006E-01  -1.76838E-01   1.73011E+00   2.85525E-01   1.11350E+01  -2.62169E+01
  2.31742E-01  -1.76566E-01   1.74134E+00   2.59015E-01   1.12261E+01  -2.68453E+01
  2.33488E-01  -1.76320E-01   1.75256E+00   2.31835E-01   1.11372E+01  -2.75580E+01
  2.35247E-01  -1.76102E-01   1.76361E+00   2.03900E-01   1.08725E+01  -2.83524E+01
  2.37016E-01  -1.75912E-01   1.77431E+00   1.75130E-01   1.04390E+01  -2.92256E+01
  2.38795E-01  -1.75752E-01   1.78449E+00   1.45448E-01   9.84613E+00  -3.01745E+01
  2.40585E-01  -1.75622E-01   1.79400E+00   1.14781E-01   9.10541E+00  -3.11957E+01
  2.42383E-01  -1.75522E-01   1.80270E+00   8.30569E-02   8.22969E+00  -3.22853E+01
  2.44190E-01  -1.75455E-01   1.81046E+00   5.02101E-02   7.23233E+00  -3.34391E+01
  2.46004E-01  -1.75422E-01   1.81717E+00   1.61788E-02   6.12681E+00  -3.46515E+01
  2.47824E-01  -1.75423E-01   1.82271E+00  -1.90928E-02   4.92677E+00  -3.59162E+01
  2.49650E-01  -1.75460E-01   1.82702E+00  -5.56537E-02   3.64638E+00  -3.72262E+01
  2.51478E-01  -1.75534E-01   1.83001E+00  -9.35453E-02   2.30072E+00  -3.85737E+01
  2.53310E-01  -1.75647E-01   1.83162E+00  -1.32801E-01   9.05714E-01  -3.99507E+01
  2.55142E-01  -1.75800E-01   1.83182E+00  -1.73447E-01  -5.22298E-01  -4.13484E+01
  2.56973E-01  -1.75994E-01   1.83058E+00  -2.15498E-01  -1.96730E+00  -4.27571E+01
  2.58803E-01  -1.76231E-01   1.82788E+00  -2.58961E-01  -3.41435E+00  -4.41659E+01
  2.60629E-01  -1.76512E-01   1.82375E+00  -3.03830E-01  -4.85014E+00  -4.55619E+01
  2.62450E-01  -1.76839E-01   1.81818E+00  -3.50085E-01  -6.26342E+00  -4.69310E+01
  2.64265E-01  -1.77212E-01   1.81122E+00  -3.97692E-01  -7.64517E+00  -4.82581E+01
  2.66073E-01  -1.77634E-01   1.80289E+00  -4.46601E-01  -8.98884E+00  -4.95278E+01
  2.67871E-01  -1.78105E-01   1.79324E+00  -4.96747E-01  -1.02903E+01  -5.07253E+01
  2.69659E-01  -1.78628E-01   1.78231E+00  -5.48051E-01  -1.15476E+01  -5.18362E+01
  2.71436E-01  -1.79202E-01   1.77015E+00  -6.00420E-01  -1.27605E+01  -5.28473E+01
  2.73200E-01  -1.79828E-01   1.75679E+00  -6.53746E-01  -1.39300E+01  -5.37458E+01
  2.74949E-01  -1.80509E-01   1.74229E+00  -7.07911E-01  -1.50578E+01  -5.45201E+01
  2.76684E-01  -1.81244E-01   1.72668E+00  -7.62786E-01  -1.61468E+01  -5.51595E+01
  2.78403E-01  -1.82035E-01   1.70999E+00  -8.18230E-01  -1.72005E+01  -5.56547E+01
  2.80104E-01  -1.82881E-01   1.69227E+00  -8.74095E-01  -1.82240E+01  -5.59980E+01
  2.81787E-01  -1.83783E-01   1.67355E+00  -9.30226E-01  -1.92230E+01  -5.61834E+01
  2.83451E-01  -1.84741E-01   1.65383E+00  -9.86462E-01  -2.02039E+01  -5.62066E+01
  2.85095E-01  -1.85756E-01   1.63314E+00  -1.04264E+00  -2.11730E+01  -5.60647E+01
  2.86717E-01  -1.86826E-01   1.61148E+00  -1.09859E+00  -2.21359E+01  -5.57565E+01
  2.88318E-01  -1.87953E-01   1.58887E+00  -1.15415E+00  -2.30972E+01  -5.52819E+01
  2.89895E-01  -1.89135E-01   1.56529E+00  -1.20916E+00  -2.40601E+01  -5.46427E+01
  2.91448E-01  -1.90371E-01   1.54075E+00  -1.26344E+00  -2.50278E+01  -5.38419E+01
  2.92977E-01  -1.91662E-01   1.51523E+00  -1.31684E+00  -2.60032E+01  -5.28839E+01
  2.94479E-01  -1.93005E-01   1.48874E+00  -1.36921E+00  -2.69904E+01  -5.17740E+01
  2.95954E-01  -1.94400E-01   1.46125E+00  -1.42039E+00  -2.79945E+01  -5.05175E+01
  2.97401E-01  -1.95846E-01   1.43275E+00  -1.47024E+00  -2.90216E+01  -4.91196E+01
  2.98820E-01  -1.97340E-01   1.40321E+00  -1.51863E+00  -3.00783E+01  -4.75845E+01
  3.00208E-01  -1.98883E-01   1.37259E+00  -1.56541E+00  -3.11707E+01  -4.59165E+01
  3.01565E-01  -2.00471E-01   1.34087E+00  -1.61046E+00  -3.23043E+01  -4.41197E+01
  3.02890E-01  -2.02104E-01   1.30798E+00  -1.65365E+00  -3.34834E+01  -4.21999E+01
  3.04181E-01  -2.03779E-01   1.27390E+00  -1.69486E+00  -3.47107E+01  -4.01644E+01
  3.05437E-01  -2.05494E-01   1.23856E+00  -1.73398E+00  -3.59876E+01  -3.80232E+01
  3.06658E-01  -2.07247E-01   1.20193E+00  -1.77091E+00  -3.73133E+01  -3.57880E+01
  3.07841E-01  -2.09035E-01   1.16394E+00  -1.80555E+00  -3.86854E+01  -3.34725E+01
  3.08986E-01  -2.10858E-01   1.12455E+00  -1.83785E+00  -4.00998E+01  -3.10914E+01
  3.10090E-01  -2.12711E-01   1.08374E+00  -1.86774E+00  -4.15514E+01  -2.86603E+01
  3.11153E-01  -2.14593E-01   1.04145E+00  -1.89517E+00  -4.30346E+01  -2.61951E+01
  3.12173E-01  -2.16501E-01   9.97668E-01  -1.92013E+00  -4.45438E+01  -2.37119E+01
  3.13149E-01  -2.18433E-01   9.52364E-01  -1.94259E+00  -4.60739E+01  -2.12262E+01
  3.14078E-01  -2.20387E-01   9.05520E-01  -1.96258E+00  -4.76197E+01  -1.87532E+01
  3.14960E-01  -2.22359E-01   8.57124E-01  -1.98010E+00  -4.91758E+01  -1.63071E+01
  3.15792E-01  -2.24347E-01   8.07169E-01  -1.99519E+00  -5.07354E+01  -1.39013E+01
  3.16574E-01  -2.26349E-01   7.55654E-01  -2.00790E+00  -5.22904E+01  -1.15480E+01
  3.17304E-01  -2.28363E-01   7.02588E-01  -2.01829E+00  -5.38306E+01  -9.25830E+00
  3.17979E-01  -2.30386E-01   6.47992E-01  -2.02642E+00  -5.53442E+01  -7.04229E+00
  3.18600E-01  -2.32415E-01   5.91900E-01  -2.03237E+00  -5.68184E+01  -4.90874E+00
  3.19163E-01  -2.34450E-01   5.34356E-01  -2.03624E+00  -5.82397E+01  -2.86515E+00
  3.19668E-01  -2.36488E-01   4.75420E-01  -2.03810E+00  -5.95946E+01  -9.17770E-01
  3.20114E-01  -2.38526E-01   4.15166E-01  -2.03807E+00  -6.08693E+01   9.28299E-01
  3.20499E-01  -2.40564E-01   3.53682E-01  -2.03625E+00  -6.20505E+01   2.66898E+00
  3.20821E-01  -2.42599E-01   2.91065E-01  -2.03274E+00  -6.31254E+01   4.30121E+00
  3.21081E-01  -2.44630E-01   2.27431E-01  -2.02765E+00  -6.40818E+01   5.82309E+00
  3.21276E-01  -2.46654E-01   1.62902E-01  -2.02109E+00  -6.49091E+01   7.23403E+00
  3.21406E-01  -2.48672E-01   9.76125E-02  -2.01318E+00  -6.55986E+01   8.53494E+00
  3.21471E-01  -2.50681E-01   3.17047E-02  -2.00402E+00  -6.61434E+01   9.72821E+00
  3.21470E-01  -2.52680E-01  -3.46742E-02  -1.99372E+00  -6.65390E+01   1.08176E+01
  3.21402E-01  -2.54668E-01  -1.01373E-01  -1.98238E+00  -6.67834E+01   1.18077E+01
  3.21267E-01  -2.56645E-01  -1.68241E-01  -1.97011E+00  -6.68761E+01   1.27043E+01
  3.21065E-01  -2.58608E-01  -2.35126E-01  -1.95698E+00  -6.68183E+01   1.35134E+01
  3.20797E-01  -2.60558E-01  -3.01878E-01  -1.94308E+00  -6.66123E+01   1.42419E+01
  3.20462E-01  -2.62494E-01  -3.68350E-01  -1.92849E+00  -6.62612E+01   1.48970E+01
  3.20060E-01  -2.64415E-01  -4.34400E-01  -1.91328E+00  -6.57685E+01   1.54863E+01
  3.19593E-01  -2.66321E-01  -4.99887E-01  -1.89752E+00  -6.51385E+01   1.60169E+01
  3.19060E-01  -2.68211E-01  -5.64677E-01  -1.88125E+00  -6.43756E+01   1.64955E+01
  3.18464E-01  -2.70084E-01  -6.28638E-01  -1.86453E+00  -6.34850E+01   1.69277E+01
  3.17803E-01  -2.71940E-01  -6.91647E-01  -1.84740E+00  -6.24721E+01   1.73181E+01
  3.17080E-01  -2.73778E-01  -7.53583E-01  -1.82989E+00  -6.13427E+01   1.76707E+01
  3.16296E-01  -2.75599E-01  -8.14332E-01  -1.81205E+00  -6.01031E+01   1.79886E+01
  3.15452E-01  -2.77402E-01  -8.73789E-01  -1.79391E+00  -5.87596E+01   1.82746E+01
  3.14548E-01  -2.79187E-01  -9.31852E-01  -1.77550E+00  -5.73191E+01   1.85310E+01
  3.13588E-01  -2.80953E-01  -9.88427E-01  -1.75685E+00  -5.57887E+01   1.87592E+01
  3.12572E-01  -2.82701E-01  -1.04343E+00  -1.73799E+00  -5.41762E+01   1.89597E+01
  3.11501E-01  -2.84429E-01  -1.09678E+00  -1.71893E+00  -5.24897E+01   1.91321E+01
  3.10378E-01  -2.86139E-01  -1.14841E+00  -1.69972E+00  -5.07378E+01   1.92746E+01
  3.09204E-01  -2.87829E-01  -1.19825E+00  -1.68038E+00  -4.89296E+01   1.93842E+01
  3.07981E-01  -2.89500E-01  -1.24627E+00  -1.66095E+00  -4.70741E+01   1.94570E+01
  3.06712E-01  -2.91151E-01  -1.29240E+00  -1.64147E+00  -4.51809E+01   1.94888E+01
  3.05397E-01  -2.92782E-01  -1.33663E+00  -1.62198E+00  -4.32596E+01   1.94754E+01
  3.04038E-01  -2.94395E-01  -1.37892E+00  -1.60252E+00  -4.13206E+01   1.94131E+01
  3.02639E-01  -2.95987E-01  -1.41927E+00  -1.58315E+00  -3.93744E+01   1.92988E+01
  3.01200E-01  -2.97561E-01  -1.45767E+00  -1.56392E+00  -3.74316E+01   1.91303E+01
  2.99723E-01  -2.99115E-01  -1.49413E+00  -1.54489E+00  -3.55030E+01   1.89059E+01
  2.98212E-01  -3.00651E-01  -1.52868E+00  -1.52611E+00  -3.35991E+01   1.86245E+01
  2.96666E-01  -3.02168E-01  -1.56133E+00  -1.50764E+00  -3.17305E+01   1.82854E+01
  2.95089E-01  -3.03666E-01  -1.59214E+00  -1.48954E+00  -2.99075E+01   1.78880E+01
  2.93482E-01  -3.05147E-01  -1.62115E+00  -1.47186E+00  -2.81405E+01   1.74324E+01
  2.91847E-01  -3.06610E-01  -1.64842E+00  -1.45467E+00  -2.64399E+01   1.69189E+01
  2.90185E-01  -3.08056E-01  -1.67403E+00  -1.43803E+00  -2.48160E+01   1.63481E+01
  2.88499E-01  -3.09486E-01  -1.69805E+00  -1.42198E+00  -2.32797E+01   1.57206E+01
  2.86789E-01  -3.10900E-01  -1.72059E+00  -1.40659E+00  -2.18415E+01   1.50372E+01
  2.85057E-01  -3.12299E-01  -1.74173E+00  -1.39190E+00  -2.05117E+01   1.42990E+01
  2.83305E-01  -3.13684E-01  -1.76161E+00  -1.37799E+00  -1.93000E+01   1.35073E+01
  2.81534E-01  -3.15055E-01  -1.78033E+00  -1.36489E+00  -1.82145E+01   1.26638E+01
  2.79745E-01  -3.16414E-01  -1.79804E+00  -1.35266E+00  -1.72621E+01   1.17705E+01
  2.77938E-01  -3.17760E-01  -1.81486E+00  -1.34135E+00  -1.64483E+01   1.08299E+01
  2.76115E-01  -3.19096E-01  -1.83093E+00  -1.33100E+00  -1.57775E+01   9.84382E+00
  2.74276E-01  -3.20422E-01  -1.84641E+00  -1.32166E+00  -1.52537E+01   8.81432E+00
  2.72422E-01  -3.21740E-01  -1.86144E+00  -1.31337E+00  -1.48802E+01   7.74319E+00
  2.70553E-01  -3.23049E-01  -1.87617E+00  -1.30617E+00  -1.46602E+01   6.63263E+00
  2.68670E-01  -3.24352E-01  -1.89076E+00  -1.30011E+00  -1.45960E+01   5.48570E+00
  2.66772E-01  -3.25649E-01  -1.90537E+00  -1.29520E+00  -1.46894E+01   4.30654E+00
  2.64859E-01  -3.26942E-01  -1.92014E+00  -1.29149E+00  -1.49407E+01   3.10042E+00
  2.62932E-01  -3.28232E-01  -1.93525E+00  -1.28900E+00  -1.53493E+01   1.87352E+00
  2.60989E-01  -3.29520E-01  -1.95084E+00  -1.28775E+00  -1.59138E+01   6.32825E-01
  2.59030E-01  -3.30808E-01  -1.96707E+00  -1.28774E+00  -1.66317E+01  -6.13863E-01
  2.57055E-01  -3.32096E-01  -1.98410E+00  -1.28897E+00  -1.74994E+01  -1.85772E+00
  2.55062E-01  -3.33386E-01  -2.00207E+00  -1.29145E+00  -1.85120E+01  -3.08866E+00
  2.53050E-01  -3.34679E-01  -2.02113E+00  -1.29515E+00  -1.96630E+01  -4.29531E+00
  2.51019E-01  -3.35976E-01  -2.04140E+00  -1.30004E+00  -2.09441E+01  -5.46499E+00
  2.48968E-01  -3.37279E-01  -2.06302E+00  -1.30608E+00  -2.23457E+01  -6.58392E+00
  2.46893E-01  -3.38588E-01  -2.08609E+00  -1.31321E+00  -2.38568E+01  -7.63733E+00
  2.44795E-01  -3.39905E-01  -2.11073E+00  -1.32136E+00  -2.54659E+01  -8.60941E+00
  2.42672E-01  -3.41231E-01  -2.13702E+00  -1.33043E+00  -2.71608E+01  -9.48328E+00
  2.40521E-01  -3.42566E-01  -2.16505E+00  -1.34032E+00  -2.89286E+01  -1.02408E+01
  2.38342E-01  -3.43911E-01  -2.19488E+00  -1.35091E+00  -3.07554E+01  -1.08629E+01
  2.36132E-01  -3.45268E-01  -2.22656E+00  -1.36205E+00  -3.26263E+01  -1.13290E+01
  2.33889E-01  -3.46636E-01  -2.26013E+00  -1.37357E+00  -3.45249E+01  -1.16183E+01
  2.31611E-01  -3.48015E-01  -2.29561E+00  -1.38528E+00  -3.64336E+01  -1.17095E+01
  2.29297E-01  -3.49406E-01  -2.33300E+00  -1.39699E+00  -3.83336E+01  -1.15816E+01
  2.26945E-01  -3.50809E-01  -2.37228E+00  -1.40845E+00  -4.02055E+01  -1.12140E+01
  2.24553E-01  -3.52223E-01  -2.41341E+00  -1.41942E+00  -4.20292E+01  -1.05874E+01
  2.22119E-01  -3.53648E-01  -2.45634E+00  -1.42962E+00  -4.37846E+01  -9.68348E+00
  2.19640E-01  -3.55082E-01  -2.50098E+00  -1.43878E+00  -4.54513E+01  -8.48570E+00
  2.17117E-01  -3.56525E-01  -2.54724E+00  -1.44659E+00  -4.70089E+01  -6.97960E+00
  2.14546E-01  -3.57975E-01  -2.59500E+00  -1.45274E+00  -4.84366E+01  -5.15338E+00
  2.11927E-01  -3.59431E-01  -2.64411E+00  -1.45690E+00  -4.97123E+01  -2.99879E+00
  2.09258E-01  -3.60889E-01  -2.69442E+00  -1.45874E+00  -5.08128E+01  -5.11984E-01
  2.06538E-01  -3.62348E-01  -2.74574E+00  -1.45792E+00  -5.17136E+01   2.30556E+00
  2.03766E-01  -3.63805E-01  -2.79785E+00  -1.45413E+00  -5.23887E+01   5.44612E+00
  2.00942E-01  -3.65257E-01  -2.85052E+00  -1.44703E+00  -5.28112E+01   8.89491E+00
  1.98065E-01  -3.66699E-01  -2.90347E+00  -1.43634E+00  -5.29543E+01   1.26293E+01
  1.95135E-01  -3.68129E-01  -2.95642E+00  -1.42177E+00  -5.27911E+01   1.66186E+01
  1.92152E-01  -3.69543E-01  -3.00905E+00  -1.40310E+00  -5.22954E+01   2.08240E+01
  1.89117E-01  -3.70935E-01  -3.06102E+00  -1.38013E+00  -5.14424E+01   2.52001E+01
  1.86030E-01  -3.72303E-01  -3.11194E+00  -1.35270E+00  -5.02099E+01   2.96973E+01
  1.82893E-01  -3.73641E-01  -3.16144E+00  -1.32073E+00  -4.85808E+01   3.42633E+01
  1.79707E-01  -3.74944E-01  -3.20910E+00  -1.28417E+00  -4.65462E+01   3.88464E+01
  1.76475E-01  -3.76209E-01  -3.25453E+00  -1.24304E+00  -4.41088E+01   4.33954E+01
  1.73198E-01  -3.77431E-01  -3.29732E+00  -1.19738E+00  -4.12842E+01   4.78597E+01
  1.69880E-01  -3.78604E-01  -3.33710E+00  -1.14732E+00  -3.81010E+01   5.21862E+01
  1.66524E-01  -3.79725E-01  -3.37352E+00  -1.09301E+00  -3.45988E+01   5.63171E+01
  1.63133E-01  -3.80790E-01  -3.40629E+00  -1.03468E+00  -3.08247E+01   6.01879E+01
  1.59711E-01  -3.81795E-01  -3.43517E+00  -9.72635E-01  -2.68309E+01   6.37277E+01
  1.56263E-01  -3.82735E-01  -3.45996E+00  -9.07229E-01  -2.26721E+01   6.68603E+01
  1.52792E-01  -3.83609E-01  -3.48051E+00  -8.38914E-01  -1.84052E+01   6.95079E+01
  1.49302E-01  -3.84413E-01  -3.49677E+00  -7.68214E-01  -1.40896E+01   7.15951E+01
  1.45798E-01  -3.85145E-01  -3.50869E+00  -6.95724E-01  -9.78923E+00   7.30536E+01
  1.42284E-01  -3.85805E-01  -3.51634E+00  -6.22107E-01  -5.57389E+00   7.38260E+01
  1.38765E-01  -3.86390E-01  -3.51984E+00  -5.48072E-01  -1.51943E+00   7.38708E+01
  1.35245E-01  -3.86901E-01  -3.51938E+00  -4.74365E-01   2.29446E+00   7.31645E+01
  1.31727E-01  -3.87338E-01  -3.51525E+00  -4.01743E-01   5.78917E+00   7.17025E+01
  1.28214E-01  -3.87704E-01  -3.50780E+00  -3.30960E-01   8.89304E+00   6.94977E+01
  1.24711E-01  -3.88000E-01  -3.49747E+00  -2.62748E-01   1.15464E+01   6.65773E+01
  1.21219E-01  -3.88230E-01  -3.48471E+00  -1.97806E-01   1.37037E+01   6.29797E+01
  1.17742E-01  -3.88396E-01  -3.47006E+00  -1.36788E-01   1.53330E+01   5.87526E+01
  1.14279E-01  -3.88503E-01  -3.45405E+00  -8.03003E-02   1.64126E+01   5.39511E+01
  1.10833E-01  -3.88556E-01  -3.43723E+00  -2.88862E-02   1.69281E+01   4.86376E+01
  1.07405E-01  -3.88561E-01  -3.42019E+00   1.69748E-02   1.68701E+01   4.28811E+01
  1.03993E-01  -3.88523E-01  -3.40349E+00   5.68760E-02   1.62346E+01   3.67572E+01
  1.00598E-01  -3.88447E-01  -3.38772E+00   9.04892E-02   1.50242E+01   3.03477E+01
  9.72176E-02  -3.88342E-01  -3.37344E+00   1.17571E-01   1.32502E+01   2.37399E+01
  9.38509E-02  -3.88212E-01  -3.36122E+00   1.37969E-01   1.09336E+01   1.70257E+01
  9.04952E-02  -3.88066E-01  -3.35158E+00   1.51623E-01   8.10524E+00   1.02991E+01
  8.71477E-02  -3.87909E-01  -3.34501E+00   1.58567E-01   4.80491E+00   3.65377E+00
  8.38052E-02  -3.87748E-01  -3.34197E+00   1.58930E-01   1.08049E+00  -2.81980E+00
  8.04638E-02  -3.87591E-01  -3.34285E+00   1.52928E-01  -3.01267E+00  -9.03683E+00
  7.71195E-02  -3.87443E-01  -3.34799E+00   1.40857E-01  -7.41223E+00  -1.49197E+01
  7.37678E-02  -3.87309E-01  -3.35767E+00   1.23088E-01  -1.20496E+01  -2.03988E+01
  7.04041E-02  -3.87196E-01  -3.37209E+00   1.00059E-01  -1.68515E+01  -2.54125E+01
  6.70236E-02  -3.87109E-01  -3.39138E+00   7.22632E-02  -2.17421E+01  -2.99076E+01
  6.36214E-02  -3.87052E-01  -3.41558E+00   4.02438E-02  -2.66465E+01  -3.38395E+01
  6.01925E-02  -3.87029E-01  -3.44467E+00   4.58429E-03  -3.14930E+01  -3.71727E+01
  5.67320E-02  -3.87043E-01  -3.47856E+00  -3.41015E-02  -3.62148E+01  -3.98821E+01
  5.32353E-02  -3.87097E-01  -3.51710E+00  -7.51800E-02  -4.07508E+01  -4.19537E+01
  4.96978E-02  -3.87193E-01  -3.56006E+00  -1.18009E-01  -4.50445E+01  -4.33839E+01
  4.61152E-02  -3.87333E-01  -3.60719E+00  -1.61948E-01  -4.90431E+01  -4.41793E+01
  4.24835E-02  -3.87517E-01  -3.65815E+00  -2.06368E-01  -5.26963E+01  -4.43547E+01
  3.87989E-02  -3.87746E-01  -3.71258E+00  -2.50657E-01  -5.59565E+01  -4.39319E+01
  3.50583E-02  -3.88018E-01  -3.77006E+00  -2.94231E-01  -5.87791E+01  -4.29389E+01
  3.12588E-02  -3.88334E-01  -3.83014E+00  -3.36535E-01  -6.11238E+01  -4.14094E+01
  2.73980E-02  -3.88691E-01  -3.89231E+00  -3.77050E-01  -6.29558E+01  -3.93822E+01
  2.34742E-02  -3.89088E-01  -3.95605E+00  -4.15299E-01  -6.42466E+01  -3.69007E+01
  1.94859E-02  -3.89522E-01  -4.02080E+00  -4.50852E-01  -6.49755E+01  -3.40121E+01
  1.54326E-02  -3.89990E-01  -4.08600E+00  -4.83324E-01  -6.51290E+01  -3.07658E+01
  1.13139E-02  -3.90489E-01  -4.15106E+00  -5.12383E-01  -6.47017E+01  -2.72132E+01
  7.13043E-03  -3.91015E-01  -4.21540E+00  -5.37750E-01  -6.36965E+01  -2.34065E+01
  2.88311E-03  -3.91564E-01  -4.27845E+00  -5.59196E-01  -6.21262E+01  -1.93983E+01
 -1.42648E-03  -3.92133E-01  -4.33966E+00  -5.76547E-01  -6.00137E+01  -1.52406E+01
 -5.79620E-03  -3.92717E-01  -4.39848E+00  -5.89677E-01  -5.73931E+01  -1.09832E+01
 -1.02234E-02  -3.93312E-01  -4.45444E+00  -5.98513E-01  -5.43084E+01  -6.67293E+00
 -1.47051E-02  -3.93914E-01  -4.50710E+00  -6.03023E-01  -5.08107E+01  -2.35290E+00
 -1.92376E-02  -3.94518E-01  -4.55606E+00  -6.03219E-01  -4.69543E+01   1.93792E+00
 -2.38172E-02  -3.95121E-01  -4.60101E+00  -5.99147E-01  -4.27924E+01   6.16455E+00
 -2.84397E-02  -3.95717E-01  -4.64165E+00  -5.90890E-01  -3.83733E+01   1.02957E+01
 -3.31005E-02  -3.96302E-01  -4.67775E+00  -5.78556E-01  -3.37387E+01   1.43033E+01
 -3.77952E-02  -3.96874E-01  -4.70913E+00  -5.62283E-01  -2.89247E+01   1.81618E+01
 -4.25188E-02  -3.97427E-01  -4.73560E+00  -5.42232E-01  -2.39633E+01   2.18478E+01
 -4.72664E-02  -3.97958E-01  -4.75705E+00  -5.18588E-01  -1.88861E+01   2.53391E+01
 -5.20329E-02  -3.98464E-01  -4.77338E+00  -4.91554E-01  -1.37255E+01   2.86151E+01
 -5.68131E-02  -3.98941E-01  -4.78450E+00  -4.61357E-01  -8.51680E+00   3.16564E+01
 -6.16019E-02  -3.99387E-01  -4.79041E+00  -4.28241E-01  -3.29670E+00   3.44452E+01
 -6.63939E-02  -3.99798E-01  -4.79110E+00  -3.92467E-01   1.89751E+00   3.69651E+01
 -7.11841E-02  -4.00172E-01  -4.78661E+00  -3.54311E-01   7.03010E+00   3.92021E+01
 -7.59672E-02  -4.00507E-01  -4.77704E+00  -3.14063E-01   1.20687E+01   4.11450E+01
 -8.07382E-02  -4.00800E-01  -4.76248E+00  -2.72021E-01   1.69855E+01   4.27866E+01
 -8.54921E-02  -4.01051E-01  -4.74307E+00  -2.28490E-01   2.17574E+01   4.41248E+01
 -9.02243E-02  -4.01257E-01  -4.71896E+00  -1.83772E-01   2.63657E+01   4.51628E+01
 -9.49300E-02  -4.01418E-01  -4.69034E+00  -1.38164E-01   3.07950E+01   4.59100E+01
 -9.96050E-02  -4.01533E-01  -4.65737E+00  -9.19515E-02   3.50323E+01   4.63816E+01
 -1.04245E-01  -4.01602E-01  -4.62027E+00  -4.54007E-02   3.90663E+01   4.65987E+01
 -1.08846E-01  -4.01624E-01  -4.57924E+00   1.24586E-03   4.28877E+01   4.65871E+01
 -1.13403E-01  -4.01600E-01  -4.53450E+00   4.77736E-02   4.64894E+01   4.63765E+01
 -1.17914E-01  -4.01529E-01  -4.48626E+00   9.39989E-02   4.98668E+01   4.59983E+01
 -1.22376E-01  -4.01412E-01  -4.43476E+00   1.39770E-01   5.30178E+01   4.54840E+01
 -1.26784E-01  -4.01249E-01  -4.38023E+00   1.84967E-01   5.59426E+01   4.48639E+01
 -1.31136E-01  -4.01042E-01  -4.32288E+00   2.29498E-01   5.86436E+01   4.41662E+01
 -1.35430E-01  -4.00790E-01  -4.26294E+00   2.73299E-01   6.11247E+01   4.34163E+01
 -1.39662E-01  -4.00495E-01  -4.20063E+00   3.16331E-01   6.33914E+01   4.26371E+01
 -1.43831E-01  -4.00157E-01  -4.13616E+00   3.58573E-01   6.54506E+01   4.18490E+01
 -1.47934E-01  -3.99778E-01  -4.06973E+00   4.00029E-01   6.73098E+01   4.10697E+01
 -1.51970E-01  -3.99357E-01  -4.00154E+00   4.40713E-01   6.89771E+01   4.03140E+01
 -1.55938E-01  -3.98896E-01  -3.93177E+00   4.80657E-01   7.04607E+01   3.95940E+01
 -1.59834E-01  -3.98396E-01  -3.86061E+00   5.19901E-01   7.17687E+01   3.89186E+01
 -1.63659E-01  -3.97857E-01  -3.78823E+00   5.58494E-01   7.29090E+01   3.82941E+01
 -1.67410E-01  -3.97279E-01  -3.71480E+00   5.96489E-01   7.38896E+01   3.77242E+01
 -1.71088E-01  -3.96664E-01  -3.64046E+00   6.33942E-01   7.47180E+01   3.72097E+01
 -1.74691E-01  -3.96011E-01  -3.56536E+00   6.70909E-01   7.54015E+01   3.67487E+01
 -1.78219E-01  -3.95322E-01  -3.48965E+00   7.07440E-01   7.59474E+01   3.63363E+01
 -1.81671E-01  -3.94596E-01  -3.41347E+00   7.43581E-01   7.63626E+01   3.59648E+01
 -1.85046E-01  -3.93835E-01  -3.33693E+00   7.79369E-01   7.66546E+01   3.56244E+01
 -1.88345E-01  -3.93038E-01  -3.26016E+00   8.14830E-01   7.68313E+01   3.53039E+01
 -1.91566E-01  -3.92205E-01  -3.18326E+00   8.49977E-01   7.69020E+01   3.49915E+01
 -1.94711E-01  -3.91338E-01  -3.10635E+00   8.84813E-01   7.68778E+01   3.46750E+01
 -1.97779E-01  -3.90435E-01  -3.02951E+00   9.19327E-01   7.67721E+01   3.43421E+01
 -2.00770E-01  -3.89499E-01  -2.95281E+00   9.53497E-01   7.66005E+01   3.39800E+01
 -2.03685E-01  -3.88528E-01  -2.87631E+00   9.87287E-01   7.63809E+01   3.35759E+01
 -2.06523E-01  -3.87524E-01  -2.80005E+00   1.02065E+00   7.61324E+01   3.31160E+01
 -2.09285E-01  -3.86487E-01  -2.72404E+00   1.05352E+00   7.58745E+01   3.25867E+01
 -2.11971E-01  -3.85417E-01  -2.64830E+00   1.08582E+00   7.56252E+01   3.19742E+01
 -2.14581E-01  -3.84315E-01  -2.57279E+00   1.11747E+00   7.53994E+01   3.12654E+01
 -2.17116E-01  -3.83182E-01  -2.49750E+00   1.14835E+00   7.52077E+01   3.04488E+01
 -2.19576E-01  -3.82019E-01  -2.42238E+00   1.17837E+00   7.50561E+01   2.95152E+01
 -2.21961E-01  -3.80826E-01  -2.34739E+00   1.20738E+00   7.49456E+01   2.84577E+01
 -2.24271E-01  -3.79604E-01  -2.27249E+00   1.23528E+00   7.48730E+01   2.72721E+01
 -2.26506E-01  -3.78355E-01  -2.19764E+00   1.26193E+00   7.48321E+01   2.59567E+01
 -2.28666E-01  -3.77080E-01  -2.12282E+00   1.28719E+00   7.48137E+01   2.45131E+01
 -2.30752E-01  -3.75781E-01  -2.04801E+00   1.31095E+00   7.48076E+01   2.29460E+01
 -2.32762E-01  -3.74458E-01  -1.97321E+00   1.33309E+00   7.48028E+01   2.12635E+01
 -2.34698E-01  -3.73114E-01  -1.89841E+00   1.35348E+00   7.47894E+01   1.94777E+01
 -2.36559E-01  -3.71751E-01  -1.82363E+00   1.37204E+00   7.47588E+01   1.76038E+01
 -2.38345E-01  -3.70370E-01  -1.74889E+00   1.38869E+00   7.47037E+01   1.56601E+01
 -2.40057E-01  -3.68974E-01  -1.67422E+00   1.40336E+00   7.46181E+01   1.36670E+01
 -2.41694E-01  -3.67564E-01  -1.59965E+00   1.41602E+00   7.44967E+01   1.16459E+01
 -2.43256E-01  -3.66142E-01  -1.52523E+00   1.42665E+00   7.43348E+01   9.61842E+00
 -2.44744E-01  -3.64710E-01  -1.45098E+00   1.43526E+00   7.41286E+01   7.60596E+00
 -2.46158E-01  -3.63271E-01  -1.37697E+00   1.44187E+00   7.38754E+01   5.62889E+00
 -2.47498E-01  -3.61827E-01  -1.30323E+00   1.44652E+00   7.35742E+01   3.70629E+00
 -2.48765E-01  -3.60378E-01  -1.22982E+00   1.44928E+00   7.32258E+01   1.85552E+00
 -2.49958E-01  -3.58928E-01  -1.15678E+00   1.45023E+00   7.28321E+01   9.19893E-02
 -2.51078E-01  -3.57478E-01  -1.08416E+00   1.44946E+00   7.23959E+01  -1.57115E+00
 -2.52126E-01  -3.56029E-01  -1.01199E+00   1.44709E+00   7.19197E+01  -3.12315E+00
 -2.53102E-01  -3.54584E-01  -9.40318E-01   1.44322E+00   7.14054E+01  -4.55573E+00
 -2.54007E-01  -3.53143E-01  -8.69179E-01   1.43797E+00   7.08533E+01  -5.86281E+00
 -2.54841E-01  -3.51708E-01  -7.98611E-01   1.43149E+00   7.02626E+01  -7.03998E+00
 -2.55604E-01  -3.50280E-01  -7.28654E-01   1.42389E+00   6.96316E+01  -8.08385E+00
 -2.56298E-01  -3.48860E-01  -6.59348E-01   1.41532E+00   6.89579E+01  -8.99159E+00
 -2.56923E-01  -3.47449E-01  -5.90738E-01   1.40591E+00   6.82390E+01  -9.76091E+00
 -2.57479E-01  -3.46048E-01  -5.22870E-01   1.39580E+00   6.74728E+01  -1.03906E+01
 -2.57969E-01  -3.44658E-01  -4.55793E-01   1.38513E+00   6.66583E+01  -1.08810E+01
 -2.58391E-01  -3.43278E-01  -3.89554E-01   1.37404E+00   6.57962E+01  -1.12348E+01
 -2.58748E-01  -3.41909E-01  -3.24200E-01   1.36266E+00   6.48895E+01  -1.14568E+01
 -2.59039E-01  -3.40553E-01  -2.59775E-01   1.35112E+00   6.39434E+01  -1.15540E+01
 -2.59267E-01  -3.39207E-01  -1.96313E-01   1.33955E+00   6.29652E+01  -1.15348E+01
 -2.59432E-01  -3.37873E-01  -1.33844E-01   1.32806E+00   6.19631E+01  -1.14091E+01
 -2.59535E-01  -3.36551E-01  -7.23870E-02   1.31673E+00   6.09455E+01  -1.11878E+01
 -2.59577E-01  -3.35240E-01  -1.19532E-02   1.30568E+00   5.99198E+01  -1.08822E+01
 -2.59559E-01  -3.33940E-01   4.74527E-02   1.29497E+00   5.88926E+01  -1.05041E+01
 -2.59482E-01  -3.32650E-01   1.05832E-01   1.28467E+00   5.78691E+01  -1.00651E+01
 -2.59347E-01  -3.31370E-01   1.63191E-01   1.27484E+00   5.68542E+01  -9.57711E+00
 -2.59155E-01  -3.30100E-01   2.19540E-01   1.26552E+00   5.58519E+01  -9.05177E+00
 -2.58908E-01  -3.28839E-01   2.74895E-01   1.25674E+00   5.48663E+01  -8.50081E+00
 -2.58606E-01  -3.27587E-01   3.29273E-01   1.24852E+00   5.39013E+01  -7.93574E+00
 -2.58249E-01  -3.26342E-01   3.82697E-01   1.24086E+00   5.29610E+01  -7.36776E+00
 -2.57840E-01  -3.25105E-01   4.35195E-01   1.23378E+00   5.20496E+01  -6.80765E+00
 -2.57379E-01  -3.23875E-01   4.86797E-01   1.22725E+00   5.11709E+01  -6.26585E+00
 -2.56867E-01  -3.22651E-01   5.37537E-01   1.22125E+00   5.03285E+01  -5.75255E+00
 -2.56304E-01  -3.21432E-01   5.87454E-01   1.21574E+00   4.95256E+01  -5.27786E+00
 -2.55692E-01  -3.20219E-01   6.36588E-01   1.21069E+00   4.87651E+01  -4.85177E+00
 -2.55031E-01  -3.19011E-01   6.84984E-01   1.20604E+00   4.80494E+01  -4.48383E+00
 -2.54322E-01  -3.17807E-01   7.32687E-01   1.20173E+00   4.73813E+01  -4.18267E+00
 -2.53565E-01  -3.16607E-01   7.79746E-01   1.19768E+00   4.67636E+01  -3.95541E+00
 -2.52762E-01  -3.15412E-01   8.26214E-01   1.19381E+00   4.61990E+01  -3.80742E+00
 -2.51913E-01  -3.14220E-01   8.72144E-01   1.19006E+00   4.56905E+01  -3.74223E+00
 -2.51018E-01  -3.13032E-01   9.17595E-01   1.18633E+00   4.52403E+01  -3.76177E+00
 -2.50078E-01  -3.11847E-01   9.62625E-01   1.18254E+00   4.48500E+01  -3.86671E+00
 -2.49093E-01  -3.10667E-01   1.00729E+00   1.17860E+00   4.45199E+01  -4.05667E+00
 -2.48063E-01  -3.09490E-01   1.05166E+00   1.17442E+00   4.42494E+01  -4.33038E+00
 -2.46989E-01  -3.08318E-01   1.09579E+00   1.16994E+00   4.40365E+01  -4.68578E+00
 -2.45872E-01  -3.07150E-01   1.13974E+00   1.16505E+00   4.38784E+01  -5.11990E+00
 -2.44710E-01  -3.05988E-01   1.18355E+00   1.15970E+00   4.37716E+01  -5.62885E+00
 -2.43505E-01  -3.04831E-01   1.22728E+00   1.15379E+00   4.37112E+01  -6.20768E+00
 -2.42255E-01  -3.03680E-01   1.27097E+00   1.14728E+00   4.36913E+01  -6.85036E+00
 -2.40963E-01  -3.02536E-01   1.31466E+00   1.14009E+00   4.37049E+01  -7.54975E+00
 -2.39626E-01  -3.01400E-01   1.35838E+00   1.13218E+00   4.37439E+01  -8.29779E+00
 -2.38246E-01  -3.00272E-01   1.40215E+00   1.12350E+00   4.37998E+01  -9.08571E+00
 -2.36822E-01  -2.99153E-01   1.44598E+00   1.11401E+00   4.38640E+01  -9.90426E+00
 -2.35354E-01  -2.98044E-01   1.48988E+00   1.10369E+00   4.39288E+01  -1.07440E+01
 -2.33842E-01  -2.96945E-01   1.53384E+00   1.09252E+00   4.39872E+01  -1.15957E+01
 -2.32286E-01  -2.95859E-01   1.57785E+00   1.08050E+00   4.40336E+01  -1.24507E+01
 -2.30686E-01  -2.94784E-01   1.62191E+00   1.06762E+00   4.40638E+01  -1.33008E+01
 -2.29042E-01  -2.93723E-01   1.66598E+00   1.05390E+00   4.40744E+01  -1.41392E+01
 -2.27354E-01  -2.92677E-01   1.71006E+00   1.03934E+00   4.40632E+01  -1.49597E+01
 -2.25622E-01  -2.91645E-01   1.75411E+00   1.02398E+00   4.40285E+01  -1.57569E+01
 -2.23846E-01  -2.90629E-01   1.79811E+00   1.00783E+00   4.39694E+01  -1.65257E+01
 -2.22026E-01  -2.89629E-01   1.84205E+00   9.90925E-01   4.38859E+01  -1.72614E+01
 -2.20162E-01  -2.88647E-01   1.88588E+00   9.73305E-01   4.37796E+01  -1.79592E+01
 -2.18254E-01  -2.87683E-01   1.92961E+00   9.55007E-01   4.36535E+01  -1.86144E+01
 -2.16303E-01  -2.86737E-01   1.97319E+00   9.36076E-01   4.35121E+01  -1.92227E+01
 -2.14308E-01  -2.85810E-01   2.01663E+00   9.16562E-01   4.33603E+01  -1.97804E+01
 -2.12270E-01  -2.84904E-01   2.05991E+00   8.96516E-01   4.32032E+01  -2.02847E+01
 -2.10188E-01  -2.84017E-01   2.10304E+00   8.75992E-01   4.30446E+01  -2.07340E+01
 -2.08064E-01  -2.83152E-01   2.14600E+00   8.55048E-01   4.28868E+01  -2.11275E+01
 -2.05896E-01  -2.82307E-01   2.18881E+00   8.33737E-01   4.27308E+01  -2.14652E+01
 -2.03686E-01  -2.81484E-01   2.23146E+00   8.12117E-01   4.25765E+01  -2.17471E+01
 -2.01433E-01  -2.80683E-01   2.27396E+00   7.90243E-01   4.24233E+01  -2.19734E+01
 -1.99138E-01  -2.79904E-01   2.31631E+00   7.68170E-01   4.22703E+01  -2.21439E+01
 -1.96801E-01  -2.79147E-01   2.35850E+00   7.45955E-01   4.21168E+01  -2.22578E+01
 -1.94421E-01  -2.78412E-01   2.40054E+00   7.23655E-01   4.19617E+01  -2.23146E+01
 -1.91999E-01  -2.77699E-01   2.44243E+00   7.01326E-01   4.18038E+01  -2.23134E+01
 -1.89536E-01  -2.77009E-01   2.48415E+00   6.79028E-01   4.16416E+01  -2.22534E+01
 -1.87031E-01  -2.76341E-01   2.52571E+00   6.56819E-01   4.14740E+01  -2.21337E+01
 -1.84485E-01  -2.75696E-01   2.56710E+00   6.34760E-01   4.12999E+01  -2.19538E+01
 -1.81897E-01  -2.75072E-01   2.60831E+00   6.12912E-01   4.11185E+01  -2.17128E+01
 -1.79268E-01  -2.74470E-01   2.64934E+00   5.91335E-01   4.09289E+01  -2.14099E+01
 -1.76598E-01  -2.73889E-01   2.69017E+00   5.70092E-01   4.07302E+01  -2.10444E+01
 -1.73888E-01  -2.73330E-01   2.73080E+00   5.49246E-01   4.05217E+01  -2.06158E+01
 -1.71137E-01  -2.72791E-01   2.77121E+00   5.28860E-01   4.03026E+01  -2.01239E+01
 -1.68345E-01  -2.72272E-01   2.81140E+00   5.08998E-01   4.00728E+01  -1.95689E+01
 -1.65514E-01  -2.71773E-01   2.85136E+00   4.89723E-01   3.98324E+01  -1.89519E+01
 -1.62643E-01  -2.71292E-01   2.89107E+00   4.71094E-01   3.95816E+01  -1.82746E+01
 -1.59732E-01  -2.70830E-01   2.93052E+00   4.53173E-01   3.93198E+01  -1.75397E+01
 -1.56782E-01  -2.70386E-01   2.96971E+00   4.36015E-01   3.90457E+01  -1.67506E+01
 -1.53792E-01  -2.69958E-01   3.00861E+00   4.19672E-01   3.87567E+01  -1.59109E+01
 -1.50764E-01  -2.69547E-01   3.04722E+00   4.04193E-01   3.84496E+01  -1.50248E+01
 -1.47698E-01  -2.69150E-01   3.08551E+00   3.89623E-01   3.81207E+01  -1.40965E+01
 -1.44593E-01  -2.68767E-01   3.12346E+00   3.76000E-01   3.77663E+01  -1.31300E+01
 -1.41451E-01  -2.68398E-01   3.16104E+00   3.63363E-01   3.73829E+01  -1.21293E+01
 -1.38271E-01  -2.68041E-01   3.19823E+00   3.51742E-01   3.69676E+01  -1.10988E+01
 -1.35055E-01  -2.67695E-01   3.23498E+00   3.41165E-01   3.65176E+01  -1.00431E+01
 -1.31801E-01  -2.67358E-01   3.27126E+00   3.31655E-01   3.60305E+01  -8.96737E+00
 -1.28512E-01  -2.67031E-01   3.30704E+00   3.23230E-01   3.55033E+01  -7.87752E+00
 -1.25187E-01  -2.66712E-01   3.34227E+00   3.15900E-01   3.49332E+01  -6.78000E+00
 -1.21827E-01  -2.66399E-01   3.37691E+00   3.09670E-01   3.43170E+01  -5.68164E+00
 -1.18433E-01  -2.66093E-01   3.41090E+00   3.04537E-01   3.36516E+01  -4.58944E+00
 -1.15006E-01  -2.65790E-01   3.44421E+00   3.00491E-01   3.29350E+01  -3.51040E+00
 -1.11545E-01  -2.65492E-01   3.47677E+00   2.97516E-01   3.21656E+01  -2.45149E+00
 -1.08052E-01  -2.65195E-01   3.50854E+00   2.95588E-01   3.13431E+01  -1.41966E+00
 -1.04528E-01  -2.64900E-01   3.53946E+00   2.94677E-01   3.04673E+01  -4.21929E-01
 -1.00973E-01  -2.64606E-01   3.56947E+00   2.94744E-01   2.95388E+01   5.34563E-01
 -9.73890E-02  -2.64311E-01   3.59854E+00   2.95746E-01   2.85581E+01   1.44257E+00
 -9.37761E-02  -2.64014E-01   3.62659E+00   2.97630E-01   2.75262E+01   2.29483E+00
 -9.01358E-02  -2.63716E-01   3.65359E+00   3.00336E-01   2.64446E+01   3.08426E+00
 -8.64690E-02  -2.63414E-01   3.67948E+00   3.03798E-01   2.53156E+01   3.80402E+00
 -8.27768E-02  -2.63108E-01   3.70422E+00   3.07944E-01   2.41426E+01   4.44768E+00
 -7.90605E-02  -2.62798E-01   3.72777E+00   3.12693E-01   2.29304E+01   5.00929E+00
 -7.53213E-02  -2.62483E-01   3.75008E+00   3.17962E-01   2.16846E+01   5.48348E+00
 -7.15604E-02  -2.62162E-01   3.77113E+00   3.23660E-01   2.04115E+01   5.86559E+00
 -6.77790E-02  -2.61835E-01   3.79090E+00   3.29694E-01   1.91168E+01   6.15174E+00
 -6.39786E-02  -2.61503E-01   3.80937E+00   3.35964E-01   1.78051E+01   6.33883E+00
 -6.01603E-02  -2.61163E-01   3.82651E+00   3.42371E-01   1.64793E+01   6.42452E+00
 -5.63255E-02  -2.60818E-01   3.84233E+00   3.48813E-01   1.51411E+01   6.40710E+00
 -5.24756E-02  -2.60466E-01   3.85680E+00   3.55185E-01   1.37915E+01   6.28541E+00
 -4.86119E-02  -2.60107E-01   3.86991E+00   3.61384E-01   1.24319E+01   6.05894E+00
 -4.47358E-02  -2.59743E-01   3.88166E+00   3.67303E-01   1.10642E+01   5.72810E+00
 -4.08486E-02  -2.59373E-01   3.89204E+00   3.72840E-01   9.69073E+00   5.29459E+00
 -3.69517E-02  -2.58997E-01   3.90104E+00   3.77892E-01   8.31370E+00   4.76194E+00
 -3.30465E-02  -2.58617E-01   3.90867E+00   3.82364E-01   6.93436E+00   4.13589E+00
 -2.91344E-02  -2.58233E-01   3.91491E+00   3.86164E-01   5.55285E+00   3.42479E+00
 -2.52167E-02  -2.57845E-01   3.91977E+00   3.89213E-01   4.16863E+00   2.63984E+00
 -2.12949E-02  -2.57454E-01   3.92325E+00   3.91444E-01   2.78137E+00   1.79533E+00
 -1.73702E-02  -2.57062E-01   3.92533E+00   3.92804E-01   1.73940E+00   1.13721E+00
 -1.34442E-02  -2.56669E-01   3.92673E+00   3.93718E-01   1.04428E+00   6.91317E-01
