 485   2  14
    PositionX     PositionY     VelocityX     VelocityY AccelerationX AccelerationY
  7.86359E-02  -3.08833E-01   6.37428E-01  -3.12322E-01  -2.04619E+00   3.46642E+00
  7.92720E-02  -3.09143E-01   6.34739E-01  -3.07708E-01  -3.33188E+00   5.76148E+00
  7.99054E-02  -3.09449E-01   6.30764E-01  -3.00799E-01  -5.20531E+00   9.19345E+00
  8.05335E-02  -3.09745E-01   6.24328E-01  -2.89322E-01  -7.53640E+00   1.37381E+01
  8.11541E-02  -3.10027E-01   6.15692E-01  -2.73323E-01  -9.57359E+00   1.82292E+01
  8.17649E-02  -3.10292E-01   6.05181E-01  -2.52863E-01  -1.12608E+01   2.26564E+01
  8.23644E-02  -3.10533E-01   5.93170E-01  -2.28010E-01  -1.25625E+01   2.70052E+01
  8.29513E-02  -3.10748E-01   5.80056E-01  -1.98853E-01  -1.34592E+01   3.12498E+01
  8.35245E-02  -3.10931E-01   5.66252E-01  -1.65511E-01  -1.39424E+01   3.53483E+01
  8.40838E-02  -3.11079E-01   5.52171E-01  -1.28156E-01  -1.40130E+01   3.92428E+01
  8.46289E-02  -3.11187E-01   5.38226E-01  -8.70252E-02  -1.36809E+01   4.28641E+01
  8.51602E-02  -3.11253E-01   5.24810E-01  -4.24279E-02  -1.29685E+01   4.61394E+01
  8.56785E-02  -3.11272E-01   5.12289E-01   5.25368E-03  -1.19141E+01   4.89998E+01
  8.61848E-02  -3.11242E-01   5.00981E-01   5.55717E-02  -1.05732E+01   5.13857E+01
  8.66805E-02  -3.11161E-01   4.91142E-01   1.08025E-01  -9.01792E+00   5.32508E+01
  8.71671E-02  -3.11026E-01   4.82946E-01   1.62073E-01  -7.33183E+00   5.45627E+01
  8.76463E-02  -3.10837E-01   4.76479E-01   2.17150E-01  -5.60362E+00   5.53015E+01
  8.81200E-02  -3.10592E-01   4.71738E-01   2.72676E-01  -3.92006E+00   5.54579E+01
  8.85898E-02  -3.10291E-01   4.68638E-01   3.28066E-01  -2.36092E+00   5.50302E+01
  8.90573E-02  -3.09936E-01   4.67017E-01   3.82737E-01  -9.96695E-01   5.40218E+01
  8.95239E-02  -3.09526E-01   4.66645E-01   4.36110E-01   1.10974E-01   5.24412E+01
  8.99906E-02  -3.09063E-01   4.67238E-01   4.87619E-01   9.07854E-01   5.03026E+01
  9.04583E-02  -3.08551E-01   4.68461E-01   5.36715E-01   1.34658E+00   4.76276E+01
  9.09275E-02  -3.07990E-01   4.69932E-01   5.82874E-01   1.38827E+00   4.44484E+01
  9.13982E-02  -3.07385E-01   4.71237E-01   6.25612E-01   1.00585E+00   4.08089E+01
  9.18700E-02  -3.06739E-01   4.71943E-01   6.64492E-01   1.87101E-01   3.67651E+01
  9.23421E-02  -3.06056E-01   4.71611E-01   6.99142E-01  -1.06442E+00   3.23833E+01
  9.28132E-02  -3.05341E-01   4.69815E-01   7.29259E-01  -2.73195E+00   2.77366E+01
  9.32817E-02  -3.04597E-01   4.66148E-01   7.54615E-01  -4.79073E+00   2.29023E+01
  9.37455E-02  -3.03831E-01   4.60233E-01   7.75063E-01  -7.21350E+00   1.79578E+01
  9.42022E-02  -3.03047E-01   4.51721E-01   7.90531E-01  -9.97359E+00   1.29786E+01
  9.46490E-02  -3.02250E-01   4.40286E-01   8.01020E-01  -1.30442E+01   8.03596E+00
  9.50828E-02  -3.01445E-01   4.25632E-01   8.06603E-01  -1.63943E+01   3.19597E+00
  9.55002E-02  -3.00637E-01   4.07497E-01   8.07412E-01  -1.99847E+01  -1.48063E+00
  9.58977E-02  -2.99830E-01   3.85663E-01   8.03642E-01  -2.37651E+01  -5.93821E+00
  9.62715E-02  -2.99030E-01   3.59967E-01   7.95536E-01  -2.76756E+01  -1.01256E+01
  9.66177E-02  -2.98239E-01   3.30312E-01   7.83390E-01  -3.16507E+01  -1.39958E+01
  9.69322E-02  -2.97463E-01   2.96666E-01   7.67544E-01  -3.56251E+01  -1.75061E+01
  9.72110E-02  -2.96704E-01   2.59061E-01   7.48378E-01  -3.95382E+01  -2.06188E+01
  9.74503E-02  -2.95966E-01   2.17589E-01   7.26307E-01  -4.33371E+01  -2.33027E+01
  9.76462E-02  -2.95252E-01   1.72387E-01   7.01773E-01  -4.69762E+01  -2.55350E+01
  9.77951E-02  -2.94563E-01   1.23637E-01   6.75237E-01  -5.04163E+01  -2.73022E+01
  9.78935E-02  -2.93901E-01   7.15547E-02   6.47168E-01  -5.36221E+01  -2.86001E+01
  9.79382E-02  -2.93268E-01   1.63927E-02   6.18036E-01  -5.65597E+01  -2.94342E+01
  9.79262E-02  -2.92665E-01  -4.15648E-02   5.88300E-01  -5.91965E+01  -2.98177E+01
  9.78550E-02  -2.92092E-01  -1.02000E-01   5.58401E-01  -6.14996E+01  -2.97719E+01
  9.77222E-02  -2.91548E-01  -1.64564E-01   5.28756E-01  -6.34368E+01  -2.93250E+01
  9.75259E-02  -2.91034E-01  -2.28874E-01   4.99751E-01  -6.49767E+01  -2.85128E+01
  9.72645E-02  -2.90549E-01  -2.94517E-01   4.71731E-01  -6.60905E+01  -2.73781E+01
  9.69369E-02  -2.90091E-01  -3.61055E-01   4.44995E-01  -6.67532E+01  -2.59711E+01
  9.65424E-02  -2.89659E-01  -4.28024E-01   4.19788E-01  -6.69460E+01  -2.43475E+01
  9.60808E-02  -2.89251E-01  -4.94947E-01   3.96300E-01  -6.66579E+01  -2.25665E+01
  9.55525E-02  -2.88866E-01  -5.61340E-01   3.74655E-01  -6.58873E+01  -2.06875E+01
  9.49582E-02  -2.88502E-01  -6.26721E-01   3.54925E-01  -6.46434E+01  -1.87655E+01
  9.42991E-02  -2.88156E-01  -6.90627E-01   3.37124E-01  -6.29480E+01  -1.68470E+01
  9.35769E-02  -2.87828E-01  -7.52617E-01   3.21231E-01  -6.08354E+01  -1.49675E+01
  9.27938E-02  -2.87514E-01  -8.12297E-01   3.07190E-01  -5.83514E+01  -1.31504E+01
  9.19523E-02  -2.87213E-01  -8.69320E-01   2.94930E-01  -5.55494E+01  -1.14087E+01
  9.10552E-02  -2.86924E-01  -9.23396E-01   2.84372E-01  -5.24838E+01  -9.74740E+00
  9.01055E-02  -2.86644E-01  -9.74288E-01   2.75435E-01  -4.92039E+01  -8.16633E+00
  8.91066E-02  -2.86373E-01  -1.02180E+00   2.68039E-01  -4.57491E+01  -6.66254E+00
  8.80619E-02  -2.86108E-01  -1.06579E+00   2.62110E-01  -4.21477E+01  -5.23221E+00
  8.69750E-02  -2.85849E-01  -1.10610E+00   2.57575E-01  -3.84198E+01  -3.87211E+00
  8.58497E-02  -2.85593E-01  -1.14263E+00   2.54366E-01  -3.45811E+01  -2.58033E+00
  8.46898E-02  -2.85340E-01  -1.17526E+00   2.52414E-01  -3.06485E+01  -1.35658E+00
  8.34992E-02  -2.85088E-01  -1.20392E+00   2.51653E-01  -2.66428E+01  -2.01895E-01
  8.22819E-02  -2.84837E-01  -1.22855E+00   2.52011E-01  -2.25890E+01   8.81675E-01
  8.10421E-02  -2.84584E-01  -1.24910E+00   2.53416E-01  -1.85157E+01   1.89130E+00
  7.97837E-02  -2.84330E-01  -1.26558E+00   2.55793E-01  -1.44522E+01   2.82343E+00
  7.85109E-02  -2.84073E-01  -1.27801E+00   2.59063E-01  -1.04270E+01   3.67380E+00
  7.72277E-02  -2.83812E-01  -1.28643E+00   2.63141E-01  -6.46549E+00   4.43754E+00
  7.59381E-02  -2.83547E-01  -1.29094E+00   2.67938E-01  -2.59020E+00   5.10954E+00
  7.46459E-02  -2.83276E-01  -1.29161E+00   2.73360E-01   1.17983E+00   5.68474E+00
  7.33548E-02  -2.83000E-01  -1.28858E+00   2.79307E-01   4.82821E+00   6.15858E+00
  7.20687E-02  -2.82717E-01  -1.28196E+00   2.85677E-01   8.34039E+00   6.52729E+00
  7.07909E-02  -2.82428E-01  -1.27190E+00   2.92362E-01   1.17028E+01   6.78828E+00
  6.95249E-02  -2.82133E-01  -1.25855E+00   2.99254E-01   1.49025E+01   6.94044E+00
  6.82738E-02  -2.81830E-01  -1.24209E+00   3.06243E-01   1.79270E+01   6.98457E+00
  6.70407E-02  -2.81520E-01  -1.22270E+00   3.13223E-01   2.07656E+01   6.92361E+00
  6.58284E-02  -2.81203E-01  -1.20056E+00   3.20090E-01   2.34093E+01   6.76276E+00
  6.46396E-02  -2.80880E-01  -1.17588E+00   3.26748E-01   2.58525E+01   6.50926E+00
  6.34767E-02  -2.80550E-01  -1.14885E+00   3.33109E-01   2.80920E+01   6.17197E+00
  6.23419E-02  -2.80214E-01  -1.11969E+00   3.39092E-01   3.01268E+01   5.76089E+00
  6.12373E-02  -2.79872E-01  -1.08860E+00   3.44630E-01   3.19569E+01   5.28676E+00
  6.01647E-02  -2.79525E-01  -1.05578E+00   3.49666E-01   3.35828E+01   4.76085E+00
  5.91257E-02  -2.79172E-01  -1.02144E+00   3.54152E-01   3.50049E+01   4.19472E+00
  5.81218E-02  -2.78816E-01  -9.85770E-01   3.58055E-01   3.62237E+01   3.59992E+00
  5.71542E-02  -2.78456E-01  -9.48988E-01   3.61352E-01   3.72400E+01   2.98763E+00
  5.62238E-02  -2.78094E-01  -9.11290E-01   3.64030E-01   3.80551E+01   2.36824E+00
  5.53316E-02  -2.77728E-01  -8.72878E-01   3.66088E-01   3.86706E+01   1.75113E+00
  5.44781E-02  -2.77361E-01  -8.33949E-01   3.67533E-01   3.90892E+01   1.14443E+00
  5.36637E-02  -2.76993E-01  -7.94699E-01   3.68377E-01   3.93145E+01   5.54895E-01
  5.28887E-02  -2.76625E-01  -7.55320E-01   3.68642E-01   3.93524E+01  -1.24104E-02
  5.21531E-02  -2.76256E-01  -7.15994E-01   3.68352E-01   3.92109E+01  -5.54369E-01
  5.14567E-02  -2.75888E-01  -6.76898E-01   3.67534E-01   3.89012E+01  -1.07000E+00
  5.07993E-02  -2.75521E-01  -6.38192E-01   3.66212E-01   3.84361E+01  -1.56042E+00
  5.01803E-02  -2.75155E-01  -6.00026E-01   3.64413E-01   3.78299E+01  -2.02844E+00
  4.95992E-02  -2.74792E-01  -5.62532E-01   3.62156E-01   3.70975E+01  -2.47802E+00
  4.90553E-02  -2.74431E-01  -5.25831E-01   3.59457E-01   3.62546E+01  -2.91366E+00
  4.85476E-02  -2.74073E-01  -4.90023E-01   3.56328E-01   3.53183E+01  -3.34007E+00
  4.80752E-02  -2.73718E-01  -4.55194E-01   3.52777E-01   3.43083E+01  -3.76213E+00
  4.76372E-02  -2.73368E-01  -4.21407E-01   3.48804E-01   3.32473E+01  -4.18512E+00
  4.72324E-02  -2.73021E-01  -3.88699E-01   3.44406E-01   3.21615E+01  -4.61522E+00
  4.68598E-02  -2.72679E-01  -3.57083E-01   3.39574E-01   3.10791E+01  -5.05991E+00
  4.65182E-02  -2.72342E-01  -3.26541E-01   3.34287E-01   3.00285E+01  -5.52814E+00
  4.62067E-02  -2.72010E-01  -2.97026E-01   3.28517E-01   2.90366E+01  -6.03017E+00
  4.59242E-02  -2.71685E-01  -2.68468E-01   3.22226E-01   2.81266E+01  -6.57722E+00
  4.56698E-02  -2.71366E-01  -2.40773E-01   3.15363E-01   2.73165E+01  -7.18094E+00
  4.54426E-02  -2.71054E-01  -2.13835E-01   3.07864E-01   2.66179E+01  -7.85312E+00
  4.52421E-02  -2.70750E-01  -1.87537E-01   2.99657E-01   2.60358E+01  -8.60537E+00
  4.50676E-02  -2.70455E-01  -1.61763E-01   2.90654E-01   2.55685E+01  -9.44855E+00
  4.49186E-02  -2.70169E-01  -1.36400E-01   2.80760E-01   2.52088E+01  -1.03917E+01
  4.47948E-02  -2.69893E-01  -1.11346E-01   2.69870E-01   2.49444E+01  -1.14407E+01
  4.46959E-02  -2.69629E-01  -8.65116E-02   2.57878E-01   2.47596E+01  -1.25968E+01
  4.46217E-02  -2.69377E-01  -6.18268E-02   2.44677E-01   2.46354E+01  -1.38560E+01
  4.45722E-02  -2.69140E-01  -3.72408E-02   2.30166E-01   2.45513E+01  -1.52090E+01
  4.45473E-02  -2.68917E-01  -1.27241E-02   2.14259E-01   2.44862E+01  -1.66408E+01
  4.45468E-02  -2.68711E-01   1.17315E-02   1.96884E-01   2.44195E+01  -1.81318E+01
  4.45707E-02  -2.68523E-01   3.61148E-02   1.77995E-01   2.43328E+01  -1.96580E+01
  4.46190E-02  -2.68355E-01   6.03971E-02   1.57568E-01   2.42104E+01  -2.11930E+01
  4.46915E-02  -2.68208E-01   8.45356E-02   1.35609E-01   2.40403E+01  -2.27088E+01
  4.47881E-02  -2.68084E-01   1.08478E-01   1.12151E-01   2.38147E+01  -2.41784E+01
  4.49085E-02  -2.67984E-01   1.32165E-01   8.72525E-02   2.35303E+01  -2.55766E+01
  4.50524E-02  -2.67909E-01   1.55538E-01   6.09976E-02   2.31874E+01  -2.68819E+01
  4.52195E-02  -2.67862E-01   1.78540E-01   3.34887E-02   2.27889E+01  -2.80766E+01
  4.54095E-02  -2.67842E-01   2.01116E-01   4.84442E-03   2.23377E+01  -2.91465E+01
  4.56218E-02  -2.67852E-01   2.23215E-01  -2.48042E-02   2.18347E+01  -3.00796E+01
  4.58559E-02  -2.67892E-01   2.44785E-01  -5.53147E-02   2.12773E+01  -3.08645E+01
  4.61113E-02  -2.67963E-01   2.65770E-01  -8.65332E-02   2.06593E+01  -3.14887E+01
  4.63875E-02  -2.68065E-01   2.86104E-01  -1.18292E-01   1.99717E+01  -3.19374E+01
  4.66836E-02  -2.68199E-01   3.05713E-01  -1.50408E-01   1.92041E+01  -3.21941E+01
  4.69989E-02  -2.68366E-01   3.24512E-01  -1.82680E-01   1.83465E+01  -3.22422E+01
  4.73326E-02  -2.68565E-01   3.42406E-01  -2.14892E-01   1.73913E+01  -3.20675E+01
  4.76837E-02  -2.68796E-01   3.59295E-01  -2.46815E-01   1.63340E+01  -3.16609E+01
  4.80512E-02  -2.69058E-01   3.75074E-01  -2.78214E-01   1.51744E+01  -3.10192E+01
  4.84338E-02  -2.69352E-01   3.89644E-01  -3.08854E-01   1.39164E+01  -3.01464E+01
  4.88305E-02  -2.69676E-01   4.02907E-01  -3.38507E-01   1.25674E+01  -2.90534E+01
  4.92397E-02  -2.70029E-01   4.14778E-01  -3.66960E-01   1.11379E+01  -2.77566E+01
  4.96600E-02  -2.70410E-01   4.25183E-01  -3.94020E-01   9.64067E+00  -2.62774E+01
  5.00900E-02  -2.70817E-01   4.34060E-01  -4.19515E-01   8.08976E+00  -2.46406E+01
  5.05281E-02  -2.71249E-01   4.41362E-01  -4.43301E-01   6.49927E+00  -2.28725E+01
  5.09727E-02  -2.71704E-01   4.47058E-01  -4.65260E-01   4.88256E+00  -2.09999E+01
  5.14222E-02  -2.72180E-01   4.51128E-01  -4.85301E-01   3.25180E+00  -1.90485E+01
  5.18750E-02  -2.72674E-01   4.53562E-01  -5.03357E-01   1.61817E+00  -1.70423E+01
  5.23294E-02  -2.73186E-01   4.54364E-01  -5.19386E-01  -7.70300E-03  -1.50033E+01
  5.27837E-02  -2.73713E-01   4.53546E-01  -5.33364E-01  -1.61528E+00  -1.29525E+01
  5.32365E-02  -2.74253E-01   4.51133E-01  -5.45291E-01  -3.19382E+00  -1.09095E+01
  5.36860E-02  -2.74804E-01   4.47159E-01  -5.55183E-01  -4.73238E+00  -8.89356E+00
  5.41308E-02  -2.75363E-01   4.41669E-01  -5.63078E-01  -6.21991E+00  -6.92299E+00
  5.45693E-02  -2.75930E-01   4.34719E-01  -5.69029E-01  -7.64527E+00  -5.01537E+00
  5.50002E-02  -2.76501E-01   4.26378E-01  -5.73108E-01  -8.99721E+00  -3.18719E+00
  5.54221E-02  -2.77076E-01   4.16725E-01  -5.75403E-01  -1.02644E+01  -1.45366E+00
  5.58337E-02  -2.77652E-01   4.05849E-01  -5.76016E-01  -1.14358E+01   1.71519E-01
  5.62338E-02  -2.78228E-01   3.93853E-01  -5.75060E-01  -1.25010E+01   1.67649E+00
  5.66214E-02  -2.78802E-01   3.80847E-01  -5.72663E-01  -1.34504E+01   3.05160E+00
  5.69955E-02  -2.79373E-01   3.66952E-01  -5.68957E-01  -1.42767E+01   4.28983E+00
  5.73553E-02  -2.79940E-01   3.52294E-01  -5.64083E-01  -1.49740E+01   5.38690E+00
  5.77001E-02  -2.80502E-01   3.37004E-01  -5.58183E-01  -1.55391E+01   6.34121E+00
  5.80293E-02  -2.81057E-01   3.21216E-01  -5.51401E-01  -1.59707E+01   7.15337E+00
  5.83425E-02  -2.81604E-01   3.05063E-01  -5.43877E-01  -1.62697E+01   7.82556E+00
  5.86394E-02  -2.82144E-01   2.88676E-01  -5.35750E-01  -1.64386E+01   8.36112E+00
  5.89199E-02  -2.82676E-01   2.72185E-01  -5.27154E-01  -1.64823E+01   8.76451E+00
  5.91838E-02  -2.83199E-01   2.55712E-01  -5.18221E-01  -1.64068E+01   9.04156E+00
  5.94313E-02  -2.83712E-01   2.39372E-01  -5.09071E-01  -1.62199E+01   9.19990E+00
  5.96625E-02  -2.84217E-01   2.23272E-01  -4.99821E-01  -1.59301E+01   9.24905E+00
  5.98778E-02  -2.84712E-01   2.07511E-01  -4.90573E-01  -1.55458E+01   9.20008E+00
  6.00775E-02  -2.85198E-01   1.92180E-01  -4.81421E-01  -1.50755E+01   9.06491E+00
  6.02622E-02  -2.85675E-01   1.77361E-01  -4.72443E-01  -1.45270E+01   8.85551E+00
  6.04323E-02  -2.86143E-01   1.63126E-01  -4.63710E-01  -1.39078E+01   8.58327E+00
  6.05884E-02  -2.86602E-01   1.49545E-01  -4.55277E-01  -1.32256E+01   8.25864E+00
  6.07314E-02  -2.87053E-01   1.36675E-01  -4.47192E-01  -1.24882E+01   7.89085E+00
  6.08618E-02  -2.87497E-01   1.24568E-01  -4.39495E-01  -1.17036E+01   7.48788E+00
  6.09805E-02  -2.87932E-01   1.13268E-01  -4.32217E-01  -1.08792E+01   7.05645E+00
  6.10883E-02  -2.88361E-01   1.02810E-01  -4.25382E-01  -1.00217E+01   6.60232E+00
  6.11861E-02  -2.88783E-01   9.32246E-02  -4.19012E-01  -9.13622E+00   6.13060E+00
  6.12748E-02  -2.89199E-01   8.45375E-02  -4.13121E-01  -8.22693E+00   5.64600E+00
  6.13552E-02  -2.89609E-01   7.67707E-02  -4.07720E-01  -7.29718E+00   5.15272E+00
  6.14283E-02  -2.90015E-01   6.99432E-02  -4.02816E-01  -6.34990E+00   4.65400E+00
  6.14951E-02  -2.90415E-01   6.40709E-02  -3.98412E-01  -5.38790E+00   4.15164E+00
  6.15565E-02  -2.90811E-01   5.91674E-02  -3.94512E-01  -4.41391E+00   3.64588E+00
  6.16134E-02  -2.91204E-01   5.52431E-02  -3.91120E-01  -3.43068E+00   3.13583E+00
  6.16669E-02  -2.91594E-01   5.23060E-02  -3.88241E-01  -2.44113E+00   2.62050E+00
  6.17180E-02  -2.91981E-01   5.03609E-02  -3.85879E-01  -1.44859E+00   2.09985E+00
  6.17677E-02  -2.92365E-01   4.94088E-02  -3.84041E-01  -4.56941E-01   1.57551E+00
  6.18168E-02  -2.92749E-01   4.94470E-02  -3.82728E-01   5.29394E-01   1.05072E+00
  6.18666E-02  -2.93131E-01   5.04676E-02  -3.81939E-01   1.50562E+00   5.29643E-01
  6.19178E-02  -2.93513E-01   5.24582E-02  -3.81669E-01   2.46690E+00   1.63544E-02
  6.19715E-02  -2.93894E-01   5.54014E-02  -3.81907E-01   3.40859E+00  -4.86030E-01
  6.20286E-02  -2.94276E-01   5.92754E-02  -3.82641E-01   4.32636E+00  -9.75868E-01
  6.20900E-02  -2.94659E-01   6.40542E-02  -3.83858E-01   5.21595E+00  -1.45309E+00
  6.21567E-02  -2.95044E-01   6.97073E-02  -3.85547E-01   6.07278E+00  -1.91890E+00
  6.22294E-02  -2.95431E-01   7.61997E-02  -3.87696E-01   6.89161E+00  -2.37522E+00
  6.23091E-02  -2.95819E-01   8.34905E-02  -3.90298E-01   7.66642E+00  -2.82396E+00
  6.23964E-02  -2.96211E-01   9.15325E-02  -3.93344E-01   8.39055E+00  -3.26644E+00
  6.24922E-02  -2.96606E-01   1.00272E-01  -3.96830E-01   9.05723E+00  -3.70312E+00
  6.25970E-02  -2.97005E-01   1.09647E-01  -4.00750E-01   9.65998E+00  -4.13377E+00
  6.27114E-02  -2.97408E-01   1.19592E-01  -4.05098E-01   1.01930E+01  -4.55799E+00
  6.28361E-02  -2.97815E-01   1.30033E-01  -4.09866E-01   1.06514E+01  -4.97570E+00
  6.29715E-02  -2.98227E-01   1.40894E-01  -4.15049E-01   1.10307E+01  -5.38745E+00
  6.31179E-02  -2.98645E-01   1.52095E-01  -4.20641E-01   1.13275E+01  -5.79437E+00
  6.32757E-02  -2.99069E-01   1.63549E-01  -4.26638E-01   1.15386E+01  -6.19774E+00
  6.34450E-02  -2.99498E-01   1.75172E-01  -4.33037E-01   1.16617E+01  -6.59859E+00
  6.36260E-02  -2.99935E-01   1.86873E-01  -4.39835E-01   1.16952E+01  -6.99739E+00
  6.38188E-02  -3.00378E-01   1.98562E-01  -4.47032E-01   1.16385E+01  -7.39412E+00
  6.40232E-02  -3.00829E-01   2.10150E-01  -4.54624E-01   1.14914E+01  -7.78863E+00
  6.42391E-02  -3.01287E-01   2.21545E-01  -4.62609E-01   1.12542E+01  -8.18095E+00
  6.44663E-02  -3.01754E-01   2.32658E-01  -4.70985E-01   1.09278E+01  -8.57137E+00
  6.47044E-02  -3.02229E-01   2.43400E-01  -4.79752E-01   1.05131E+01  -8.96019E+00
  6.49531E-02  -3.02713E-01   2.53684E-01  -4.88906E-01   1.00117E+01  -9.34723E+00
  6.52118E-02  -3.03207E-01   2.63424E-01  -4.98446E-01   9.42563E+00  -9.73150E+00
  6.54799E-02  -3.03710E-01   2.72536E-01  -5.08369E-01   8.75763E+00  -1.01110E+01
  6.57568E-02  -3.04224E-01   2.80939E-01  -5.18668E-01   8.01062E+00  -1.04830E+01
  6.60418E-02  -3.04748E-01   2.88557E-01  -5.29335E-01   7.18758E+00  -1.08440E+01
  6.63339E-02  -3.05282E-01   2.95314E-01  -5.40356E-01   6.29099E+00  -1.11900E+01
  6.66324E-02  -3.05828E-01   3.01139E-01  -5.51715E-01   5.32261E+00  -1.15158E+01
  6.69362E-02  -3.06386E-01   3.05959E-01  -5.63388E-01   4.28342E+00  -1.18154E+01
  6.72443E-02  -3.06955E-01   3.09706E-01  -5.75346E-01   3.17404E+00  -1.20813E+01
  6.75556E-02  -3.07537E-01   3.12307E-01  -5.87550E-01   1.99529E+00  -1.23040E+01
  6.78689E-02  -3.08130E-01   3.13696E-01  -5.99954E-01   7.48814E-01  -1.24723E+01
  6.81830E-02  -3.08737E-01   3.13805E-01  -6.12495E-01  -5.62677E-01  -1.25730E+01
  6.84966E-02  -3.09355E-01   3.12571E-01  -6.25100E-01  -1.93563E+00  -1.25906E+01
  6.88082E-02  -3.09987E-01   3.09934E-01  -6.37676E-01  -3.36616E+00  -1.25076E+01
  6.91164E-02  -3.10631E-01   3.05839E-01  -6.50115E-01  -4.85050E+00  -1.23048E+01
  6.94198E-02  -3.11287E-01   3.00233E-01  -6.62286E-01  -6.38494E+00  -1.19616E+01
  6.97169E-02  -3.11955E-01   2.93069E-01  -6.74038E-01  -7.96507E+00  -1.14571E+01
  7.00060E-02  -3.12635E-01   2.84303E-01  -6.85200E-01  -9.58465E+00  -1.07706E+01
  7.02855E-02  -3.13326E-01   2.73899E-01  -6.95579E-01  -1.12346E+01  -9.88180E+00
  7.05538E-02  -3.14026E-01   2.61834E-01  -7.04964E-01  -1.29023E+01  -8.77131E+00
  7.08092E-02  -3.14736E-01   2.48095E-01  -7.13122E-01  -1.45722E+01  -7.42118E+00
  7.10500E-02  -3.15452E-01   2.32689E-01  -7.19806E-01  -1.62260E+01  -5.81556E+00
  7.12745E-02  -3.16175E-01   2.15643E-01  -7.24753E-01  -1.78434E+01  -3.94169E+00
  7.14813E-02  -3.16902E-01   1.97002E-01  -7.27689E-01  -1.94022E+01  -1.79103E+00
  7.16685E-02  -3.17631E-01   1.76838E-01  -7.28335E-01  -2.08775E+01   6.39325E-01
  7.18349E-02  -3.18359E-01   1.55247E-01  -7.26411E-01  -2.22405E+01   3.34513E+00
  7.19790E-02  -3.19083E-01   1.32357E-01  -7.21645E-01  -2.34578E+01   6.31383E+00
  7.20996E-02  -3.19802E-01   1.08332E-01  -7.13783E-01  -2.44913E+01   9.52428E+00
  7.21957E-02  -3.20511E-01   8.33749E-02  -7.02596E-01  -2.52981E+01   1.29481E+01
  7.22664E-02  -3.21207E-01   5.77355E-02  -6.87887E-01  -2.58341E+01   1.65525E+01
  7.23112E-02  -3.21887E-01   3.17067E-02  -6.69491E-01  -2.60573E+01   2.03038E+01
  7.23298E-02  -3.22546E-01   5.62090E-03  -6.47279E-01  -2.59336E+01   2.41708E+01
  7.23224E-02  -3.23181E-01  -2.01604E-02  -6.21150E-01  -2.54413E+01   2.81253E+01
  7.22895E-02  -3.23788E-01  -4.52617E-02  -5.91029E-01  -2.45744E+01   3.21398E+01
  7.22319E-02  -3.24363E-01  -6.93091E-02  -5.56870E-01  -2.33418E+01   3.61829E+01
  7.21509E-02  -3.24902E-01  -9.19453E-02  -5.18663E-01  -2.17652E+01   4.02126E+01
  7.20480E-02  -3.25401E-01  -1.12840E-01  -4.76445E-01  -1.98747E+01   4.41721E+01
  7.19252E-02  -3.25855E-01  -1.31695E-01  -4.30319E-01  -1.77051E+01   4.79880E+01
  7.17846E-02  -3.26261E-01  -1.48250E-01  -3.80469E-01  -1.52938E+01   5.15731E+01
  7.16287E-02  -3.26616E-01  -1.62282E-01  -3.27172E-01  -1.26793E+01   5.48312E+01
  7.14601E-02  -3.26916E-01  -1.73609E-01  -2.70806E-01  -9.90220E+00   5.76639E+01
  7.12815E-02  -3.27158E-01  -1.82087E-01  -2.11845E-01  -7.00694E+00   5.99784E+01
  7.10959E-02  -3.27339E-01  -1.87622E-01  -1.50849E-01  -4.04530E+00   6.16951E+01
  7.09062E-02  -3.27459E-01  -1.90177E-01  -8.84543E-02  -1.07854E+00   6.27539E+01
  7.07155E-02  -3.27516E-01  -1.89780E-01  -2.53417E-02   1.82297E+00   6.31186E+01
  7.05267E-02  -3.27510E-01  -1.86531E-01   3.77829E-02   4.58326E+00   6.27780E+01
  7.03425E-02  -3.27441E-01  -1.80613E-01   1.00214E-01   7.12660E+00   6.17420E+01
  7.01654E-02  -3.27309E-01  -1.72278E-01   1.61267E-01   9.38312E+00   6.00366E+01
  6.99979E-02  -3.27118E-01  -1.61847E-01   2.20288E-01   1.12924E+01   5.76982E+01
  6.98418E-02  -3.26869E-01  -1.49693E-01   2.76663E-01   1.28044E+01   5.47702E+01
  6.96985E-02  -3.26565E-01  -1.36238E-01   3.29828E-01   1.38784E+01   5.13011E+01
  6.95693E-02  -3.26209E-01  -1.21937E-01   3.79266E-01   1.44820E+01   4.73448E+01
  6.94546E-02  -3.25806E-01  -1.07274E-01   4.24517E-01   1.45904E+01   4.29607E+01
  6.93547E-02  -3.25360E-01  -9.27558E-02   4.65187E-01   1.41876E+01   3.82143E+01
  6.92691E-02  -3.24876E-01  -7.88990E-02   5.00946E-01   1.32662E+01   3.31770E+01
  6.91969E-02  -3.24358E-01  -6.62234E-02   5.31541E-01   1.18283E+01   2.79267E+01
  6.91367E-02  -3.23813E-01  -5.52424E-02   5.56800E-01   9.88416E+00   2.25469E+01
  6.90864E-02  -3.23245E-01  -4.64551E-02   5.76635E-01   7.45141E+00   1.71244E+01
  6.90438E-02  -3.22660E-01  -4.03395E-02   5.91048E-01   4.55510E+00   1.17461E+01
  6.90058E-02  -3.22063E-01  -3.73449E-02   6.00127E-01   1.22877E+00   6.49564E+00
  6.89691E-02  -3.21459E-01  -3.78820E-02   6.04040E-01  -2.48373E+00   1.45053E+00
  6.89300E-02  -3.20855E-01  -4.23123E-02   6.03028E-01  -6.52730E+00  -3.32004E+00
  6.88845E-02  -3.20253E-01  -5.09366E-02   5.97400E-01  -1.08366E+01  -7.75579E+00
  6.88281E-02  -3.19660E-01  -6.39855E-02   5.87517E-01  -1.53390E+01  -1.18053E+01
  6.87565E-02  -3.19078E-01  -8.16146E-02   5.73789E-01  -1.99590E+01  -1.54253E+01
  6.86649E-02  -3.18512E-01  -1.03904E-01   5.56666E-01  -2.46221E+01  -1.85801E+01
  6.85487E-02  -3.17965E-01  -1.30859E-01   5.36629E-01  -2.92580E+01  -2.12414E+01
  6.84032E-02  -3.17439E-01  -1.62420E-01   5.14183E-01  -3.38022E+01  -2.33890E+01
  6.82238E-02  -3.16937E-01  -1.98463E-01   4.89851E-01  -3.81958E+01  -2.50122E+01
  6.80063E-02  -3.16459E-01  -2.38811E-01   4.64159E-01  -4.23855E+01  -2.61097E+01
  6.77462E-02  -3.16008E-01  -2.83234E-01   4.37631E-01  -4.63227E+01  -2.66902E+01
  6.74398E-02  -3.15584E-01  -3.31457E-01   4.10778E-01  -4.99630E+01  -2.67713E+01
  6.70833E-02  -3.15187E-01  -3.83160E-01   3.84089E-01  -5.32655E+01  -2.63774E+01
  6.66735E-02  -3.14816E-01  -4.37988E-01   3.58024E-01  -5.61921E+01  -2.55393E+01
  6.62073E-02  -3.14471E-01  -4.95544E-01   3.33010E-01  -5.87071E+01  -2.42927E+01
  6.56824E-02  -3.14150E-01  -5.55402E-01   3.09438E-01  -6.07781E+01  -2.26782E+01
  6.50965E-02  -3.13852E-01  -6.17101E-01   2.87654E-01  -6.23771E+01  -2.07412E+01
  6.44482E-02  -3.13574E-01  -6.80156E-01   2.67956E-01  -6.34832E+01  -1.85313E+01
  6.37362E-02  -3.13316E-01  -7.44067E-01   2.50591E-01  -6.40848E+01  -1.61019E+01
  6.29600E-02  -3.13073E-01  -8.08326E-01   2.35752E-01  -6.41808E+01  -1.35098E+01
  6.21196E-02  -3.12844E-01  -8.72429E-01   2.23572E-01  -6.37818E+01  -1.08141E+01
  6.12152E-02  -3.12626E-01  -9.35889E-01   2.14124E-01  -6.29093E+01  -8.07413E+00
  6.02478E-02  -3.12416E-01  -9.98247E-01   2.07423E-01  -6.15949E+01  -5.34716E+00
  5.92187E-02  -3.12211E-01  -1.05908E+00   2.03429E-01  -5.98781E+01  -2.68569E+00
  5.81296E-02  -3.12009E-01  -1.11800E+00   2.02052E-01  -5.78056E+01  -1.34855E-01
  5.69827E-02  -3.11807E-01  -1.17469E+00   2.03160E-01  -5.54296E+01   2.26927E+00
  5.57802E-02  -3.11603E-01  -1.22886E+00   2.06591E-01  -5.28054E+01   4.50050E+00
  5.45250E-02  -3.11394E-01  -1.28030E+00   2.12161E-01  -4.99886E+01   6.54227E+00
  5.32196E-02  -3.11179E-01  -1.32884E+00   2.19675E-01  -4.70303E+01   8.38641E+00
  5.18673E-02  -3.10955E-01  -1.37436E+00   2.28934E-01  -4.39727E+01   1.00310E+01
  5.04709E-02  -3.10721E-01  -1.41679E+00   2.39737E-01  -4.08470E+01   1.14779E+01
  4.90337E-02  -3.10475E-01  -1.45606E+00   2.51889E-01  -3.76724E+01   1.27301E+01
  4.75588E-02  -3.10217E-01  -1.49213E+00   2.65197E-01  -3.44586E+01   1.37906E+01
  4.60494E-02  -3.09945E-01  -1.52497E+00   2.79470E-01  -3.12089E+01   1.46611E+01
  4.45089E-02  -3.09658E-01  -1.55455E+00   2.94520E-01  -2.79237E+01   1.53428E+01
  4.29404E-02  -3.09356E-01  -1.58082E+00   3.10156E-01  -2.46036E+01   1.58358E+01
  4.13472E-02  -3.09038E-01  -1.60376E+00   3.26191E-01  -2.12507E+01   1.61402E+01
  3.97328E-02  -3.08703E-01  -1.62332E+00   3.42436E-01  -1.78694E+01   1.62569E+01
  3.81006E-02  -3.08353E-01  -1.63949E+00   3.58705E-01  -1.44665E+01   1.61885E+01
  3.64539E-02  -3.07986E-01  -1.65225E+00   3.74813E-01  -1.10509E+01   1.59410E+01
  3.47961E-02  -3.07603E-01  -1.66160E+00   3.90587E-01  -7.63346E+00   1.55244E+01
  3.31307E-02  -3.07205E-01  -1.66752E+00   4.05862E-01  -4.22631E+00   1.49528E+01
  3.14610E-02  -3.06791E-01  -1.67005E+00   4.20493E-01  -8.42533E-01   1.42445E+01
  2.97906E-02  -3.06364E-01  -1.66921E+00   4.34351E-01   2.50433E+00   1.34214E+01
  2.81226E-02  -3.05923E-01  -1.66504E+00   4.47335E-01   5.80057E+00   1.25094E+01
  2.64605E-02  -3.05469E-01  -1.65761E+00   4.59370E-01   9.03256E+00   1.15375E+01
  2.48074E-02  -3.05004E-01  -1.64697E+00   4.70410E-01   1.21870E+01   1.05361E+01
  2.31665E-02  -3.04528E-01  -1.63323E+00   4.80442E-01   1.52513E+01   9.53551E+00
  2.15409E-02  -3.04043E-01  -1.61647E+00   4.89481E-01   1.82144E+01   8.56341E+00
  1.99336E-02  -3.03549E-01  -1.59680E+00   4.97569E-01   2.10667E+01   7.64361E+00
  1.83473E-02  -3.03048E-01  -1.57434E+00   5.04769E-01   2.38002E+01   6.79552E+00
  1.67849E-02  -3.02540E-01  -1.54920E+00   5.11160E-01   2.64076E+01   6.03459E+00
  1.52489E-02  -3.02026E-01  -1.52152E+00   5.16838E-01   2.88818E+01   5.37333E+00
  1.37419E-02  -3.01506E-01  -1.49144E+00   5.21907E-01   3.12151E+01   4.82221E+00
  1.22661E-02  -3.00982E-01  -1.45909E+00   5.26482E-01   3.33993E+01   4.39000E+00
  1.08237E-02  -3.00453E-01  -1.42464E+00   5.30687E-01   3.54270E+01   4.08333E+00
  9.41677E-03  -2.99920E-01  -1.38824E+00   5.34649E-01   3.72914E+01   3.90576E+00
  8.04720E-03  -2.99384E-01  -1.35006E+00   5.38498E-01   3.89872E+01   3.85693E+00
  6.71666E-03  -2.98843E-01  -1.31027E+00   5.42363E-01   4.05099E+01   3.93202E+00
  5.42667E-03  -2.98299E-01  -1.26904E+00   5.46362E-01   4.18556E+01   4.12187E+00
  4.17858E-03  -2.97751E-01  -1.22655E+00   5.50606E-01   4.30210E+01   4.41359E+00
  2.97356E-03  -2.97198E-01  -1.18300E+00   5.55190E-01   4.40037E+01   4.79143E+00
  1.81259E-03  -2.96640E-01  -1.13855E+00   5.60189E-01   4.48035E+01   5.23765E+00
  6.96469E-04  -2.96078E-01  -1.09339E+00   5.65665E-01   4.54233E+01   5.73321E+00
 -3.74186E-04  -2.95509E-01  -1.04770E+00   5.71656E-01   4.58696E+01   6.25828E+00
 -1.39893E-03  -2.94934E-01  -1.00165E+00   5.78181E-01   4.61525E+01   6.79259E+00
 -2.37748E-03  -2.94353E-01  -9.55395E-01   5.85241E-01   4.62853E+01   7.31581E+00
 -3.30972E-03  -2.93764E-01  -9.09079E-01   5.92813E-01   4.62841E+01   7.80780E+00
 -4.19564E-03  -2.93167E-01  -8.62827E-01   6.00857E-01   4.61673E+01   8.24873E+00
 -5.03537E-03  -2.92562E-01  -8.16744E-01   6.09310E-01   4.59561E+01   8.61893E+00
 -5.82913E-03  -2.91948E-01  -7.70914E-01   6.18094E-01   4.56739E+01   8.89858E+00
 -6.57720E-03  -2.91326E-01  -7.25396E-01   6.27108E-01   4.53456E+01   9.06738E+00
 -7.27992E-03  -2.90694E-01  -6.80223E-01   6.36229E-01   4.49960E+01   9.10463E+00
 -7.93765E-03  -2.90053E-01  -6.35404E-01   6.45317E-01   4.46477E+01   8.98977E+00
 -8.55073E-03  -2.89404E-01  -5.90928E-01   6.54209E-01   4.43180E+01   8.70352E+00
 -9.11950E-03  -2.88745E-01  -5.46768E-01   6.62724E-01   4.40171E+01   8.22919E+00
 -9.64427E-03  -2.88078E-01  -5.02894E-01   6.70667E-01   4.37465E+01   7.55372E+00
 -1.01253E-02  -2.87404E-01  -4.59275E-01   6.77831E-01   4.35002E+01   6.66846E+00
 -1.05628E-02  -2.86722E-01  -4.15893E-01   6.84004E-01   4.32663E+01   5.56947E+00
 -1.09571E-02  -2.86036E-01  -3.72743E-01   6.88970E-01   4.30297E+01   4.25781E+00
 -1.13083E-02  -2.85345E-01  -3.29834E-01   6.92520E-01   4.27743E+01   2.73974E+00
 -1.16167E-02  -2.84651E-01  -2.87194E-01   6.94450E-01   4.24855E+01   1.02697E+00
 -1.18827E-02  -2.83956E-01  -2.44863E-01   6.94574E-01   4.21510E+01  -8.63327E-01
 -1.21065E-02  -2.83261E-01  -2.02892E-01   6.92723E-01   4.17622E+01  -2.90863E+00
 -1.22885E-02  -2.82570E-01  -1.61338E-01   6.88756E-01   4.13144E+01  -5.08156E+00
 -1.24291E-02  -2.81884E-01  -1.20263E-01   6.82560E-01   4.08061E+01  -7.35077E+00
 -1.25290E-02  -2.81205E-01  -7.97262E-02   6.74055E-01   4.02380E+01  -9.68230E+00
 -1.25886E-02  -2.80536E-01  -3.97870E-02   6.63195E-01   3.96124E+01  -1.20412E+01
 -1.26086E-02  -2.79879E-01  -5.01534E-04   6.49972E-01   3.89320E+01  -1.43934E+01
 -1.25896E-02  -2.79236E-01   3.80769E-02   6.34409E-01   3.82007E+01  -1.67066E+01
 -1.25324E-02  -2.78610E-01   7.58998E-02   6.16559E-01   3.74239E+01  -1.89522E+01
 -1.24378E-02  -2.78003E-01   1.12925E-01   5.96504E-01   3.66087E+01  -2.11048E+01
 -1.23066E-02  -2.77417E-01   1.49117E-01   5.74349E-01   3.57642E+01  -2.31430E+01
 -1.21396E-02  -2.76854E-01   1.84453E-01   5.50218E-01   3.48999E+01  -2.50485E+01
 -1.19377E-02  -2.76316E-01   2.18917E-01   5.24252E-01   3.40252E+01  -2.68066E+01
 -1.17017E-02  -2.75806E-01   2.52503E-01   4.96605E-01   3.31480E+01  -2.84057E+01
 -1.14327E-02  -2.75323E-01   2.85213E-01   4.67441E-01   3.22743E+01  -2.98373E+01
 -1.11313E-02  -2.74871E-01   3.17052E-01   4.36931E-01   3.14072E+01  -3.10956E+01
 -1.07986E-02  -2.74449E-01   3.48028E-01   4.05250E-01   3.05477E+01  -3.21767E+01
 -1.04353E-02  -2.74060E-01   3.78147E-01   3.72577E-01   2.96942E+01  -3.30776E+01
 -1.00423E-02  -2.73704E-01   4.07416E-01   3.39095E-01   2.88435E+01  -3.37946E+01
 -9.62042E-03  -2.73382E-01   4.35834E-01   3.04988E-01   2.79908E+01  -3.43231E+01
 -9.17059E-03  -2.73094E-01   4.63398E-01   2.70448E-01   2.71304E+01  -3.46577E+01
 -8.69363E-03  -2.72841E-01   4.90095E-01   2.35672E-01   2.62567E+01  -3.47944E+01
 -8.19040E-03  -2.72623E-01   5.15911E-01   2.00860E-01   2.53644E+01  -3.47311E+01
 -7.66181E-03  -2.72439E-01   5.40824E-01   1.66210E-01   2.44499E+01  -3.44695E+01
 -7.10875E-03  -2.72290E-01   5.64811E-01   1.31921E-01   2.35111E+01  -3.40151E+01
 -6.53218E-03  -2.72176E-01   5.87846E-01   9.81801E-02   2.25478E+01  -3.33761E+01
 -5.93306E-03  -2.72094E-01   6.09906E-01   6.51684E-02   2.15605E+01  -3.25628E+01
 -5.31237E-03  -2.72045E-01   6.30967E-01   3.30544E-02   2.05496E+01  -3.15864E+01
 -4.67113E-03  -2.72028E-01   6.51006E-01   1.99556E-03   1.95151E+01  -3.04584E+01
 -4.01036E-03  -2.72041E-01   6.69998E-01  -2.78623E-02   1.84565E+01  -2.91904E+01
 -3.33113E-03  -2.72084E-01   6.87919E-01  -5.63853E-02   1.73727E+01  -2.77950E+01
 -2.63452E-03  -2.72154E-01   7.04743E-01  -8.34522E-02   1.62626E+01  -2.62854E+01
 -1.92164E-03  -2.72251E-01   7.20444E-01  -1.08956E-01   1.51256E+01  -2.46768E+01
 -1.19363E-03  -2.72372E-01   7.34994E-01  -1.32806E-01   1.39619E+01  -2.29856E+01
 -4.51657E-04  -2.72516E-01   7.48368E-01  -1.54927E-01   1.27725E+01  -2.12295E+01
  3.03100E-04  -2.72682E-01   7.60539E-01  -1.75265E-01   1.15592E+01  -1.94273E+01
  1.06942E-03  -2.72867E-01   7.71486E-01  -1.93782E-01   1.03251E+01  -1.75977E+01
  1.84607E-03  -2.73069E-01   7.81189E-01  -2.10460E-01   9.07400E+00  -1.57596E+01
  2.63180E-03  -2.73288E-01   7.89634E-01  -2.25301E-01   7.81061E+00  -1.39316E+01
  3.42534E-03  -2.73520E-01   7.96810E-01  -2.38323E-01   6.54046E+00  -1.21319E+01
  4.22542E-03  -2.73764E-01   8.02715E-01  -2.49565E-01   5.27002E+00  -1.03785E+01
  5.03077E-03  -2.74019E-01   8.07350E-01  -2.59080E-01   4.00686E+00  -8.68909E+00
  5.84012E-03  -2.74282E-01   8.10729E-01  -2.66943E-01   2.75980E+00  -7.08059E+00
  6.65223E-03  -2.74553E-01   8.12870E-01  -2.73242E-01   1.53877E+00  -5.56834E+00
  7.46586E-03  -2.74829E-01   8.13806E-01  -2.78080E-01   3.54462E-01  -4.16545E+00
  8.27984E-03  -2.75109E-01   8.13579E-01  -2.81572E-01  -7.82067E-01  -2.88228E+00
  9.09302E-03  -2.75392E-01   8.12242E-01  -2.83844E-01  -1.85994E+00  -1.72637E+00
  9.90432E-03  -2.75677E-01   8.09859E-01  -2.85025E-01  -2.86889E+00  -7.02666E-01
  1.07127E-02  -2.75962E-01   8.06504E-01  -2.85250E-01  -3.79959E+00   1.86152E-01
  1.15173E-02  -2.76247E-01   8.02260E-01  -2.84653E-01  -4.64387E+00   9.39355E-01
  1.23173E-02  -2.76531E-01   7.97216E-01  -2.83371E-01  -5.39479E+00   1.55794E+00
  1.31118E-02  -2.76814E-01   7.91470E-01  -2.81537E-01  -6.04678E+00   2.04441E+00
  1.39002E-02  -2.77095E-01   7.85123E-01  -2.79282E-01  -6.59592E+00   2.40248E+00
  1.46820E-02  -2.77373E-01   7.78279E-01  -2.76732E-01  -7.04038E+00   2.63682E+00
  1.54568E-02  -2.77648E-01   7.71042E-01  -2.74008E-01  -7.38087E+00   2.75302E+00
  1.62241E-02  -2.77921E-01   7.63517E-01  -2.71226E-01  -7.62083E+00   2.75764E+00
  1.69838E-02  -2.78190E-01   7.55800E-01  -2.68493E-01  -7.76617E+00   2.65858E+00
  1.77357E-02  -2.78458E-01   7.47984E-01  -2.65909E-01  -7.82461E+00   2.46542E+00
  1.84798E-02  -2.78722E-01   7.40151E-01  -2.63562E-01  -7.80483E+00   2.18968E+00
  1.92160E-02  -2.78985E-01   7.32375E-01  -2.61529E-01  -7.71559E+00   1.84468E+00
  1.99445E-02  -2.79245E-01   7.24720E-01  -2.59873E-01  -7.56507E+00   1.44497E+00
  2.06654E-02  -2.79504E-01   7.17245E-01  -2.58640E-01  -7.36049E+00   1.00540E+00
  2.13790E-02  -2.79763E-01   7.09999E-01  -2.57862E-01  -7.10788E+00   5.40073E-01
  2.20854E-02  -2.80020E-01   7.03029E-01  -2.57559E-01  -6.81206E+00   6.17027E-02
  2.27851E-02  -2.80278E-01   6.96375E-01  -2.57739E-01  -6.47665E+00  -4.18645E-01
  2.34782E-02  -2.80536E-01   6.90076E-01  -2.58397E-01  -6.10409E+00  -8.91468E-01
  2.41652E-02  -2.80794E-01   6.84167E-01  -2.59522E-01  -5.69564E+00  -1.34859E+00
  2.48465E-02  -2.81055E-01   6.78684E-01  -2.61094E-01  -5.25149E+00  -1.78294E+00
  2.55226E-02  -2.81317E-01   6.73664E-01  -2.63087E-01  -4.77106E+00  -2.18834E+00
  2.61938E-02  -2.81581E-01   6.69142E-01  -2.65471E-01  -4.25339E+00  -2.55937E+00
  2.68609E-02  -2.81848E-01   6.65157E-01  -2.68206E-01  -3.69759E+00  -2.89143E+00
  2.75242E-02  -2.82117E-01   6.61747E-01  -2.71253E-01  -3.10328E+00  -3.18088E+00
  2.81844E-02  -2.82390E-01   6.58950E-01  -2.74568E-01  -2.47091E+00  -3.42548E+00
  2.88421E-02  -2.82666E-01   6.56805E-01  -2.78104E-01  -1.80183E+00  -3.62490E+00
  2.94980E-02  -2.82946E-01   6.55347E-01  -2.81818E-01  -1.09837E+00  -3.78102E+00
  3.01528E-02  -2.83230E-01   6.54608E-01  -2.85666E-01  -3.63730E-01  -3.89797E+00
  3.08072E-02  -2.83518E-01   6.54619E-01  -2.89614E-01   3.98100E-01  -3.98158E+00
  3.14620E-02  -2.83809E-01   6.55405E-01  -2.93630E-01   1.18245E+00  -4.03859E+00
  3.21180E-02  -2.84105E-01   6.56984E-01  -2.97691E-01   1.98408E+00  -4.07572E+00
  3.27760E-02  -2.84405E-01   6.59373E-01  -3.01781E-01   2.79736E+00  -4.09904E+00
  3.34367E-02  -2.84708E-01   6.62579E-01  -3.05889E-01   3.61659E+00  -4.11359E+00
  3.41011E-02  -2.85016E-01   6.66606E-01  -3.10008E-01   4.43614E+00  -4.12337E+00
  3.47699E-02  -2.85329E-01   6.71451E-01  -3.14136E-01   5.25071E+00  -4.13139E+00
  3.54440E-02  -2.85645E-01   6.77107E-01  -3.18271E-01   6.05520E+00  -4.13970E+00
  3.61242E-02  -2.85965E-01   6.83562E-01  -3.22415E-01   6.84458E+00  -4.14934E+00
  3.68111E-02  -2.86290E-01   6.90797E-01  -3.26570E-01   7.61359E+00  -4.16031E+00
  3.75058E-02  -2.86618E-01   6.98789E-01  -3.30736E-01   8.35654E+00  -4.17151E+00
  3.82087E-02  -2.86951E-01   7.07510E-01  -3.34913E-01   9.06732E+00  -4.18079E+00
  3.89208E-02  -2.87288E-01   7.16924E-01  -3.39097E-01   9.73965E+00  -4.18519E+00
  3.96426E-02  -2.87629E-01   7.26989E-01  -3.43283E-01   1.03675E+01  -4.18128E+00
  4.03748E-02  -2.87975E-01   7.37659E-01  -3.47460E-01   1.09456E+01  -4.16555E+00
  4.11179E-02  -2.88324E-01   7.48880E-01  -3.51614E-01   1.14698E+01  -4.13485E+00
  4.18725E-02  -2.88678E-01   7.60598E-01  -3.55730E-01   1.19366E+01  -4.08674E+00
  4.26391E-02  -2.89036E-01   7.72753E-01  -3.59788E-01   1.23434E+01  -4.01976E+00
  4.34180E-02  -2.89397E-01   7.85285E-01  -3.63769E-01   1.26880E+01  -3.93369E+00
  4.42097E-02  -2.89763E-01   7.98129E-01  -3.67655E-01   1.29681E+01  -3.82951E+00
  4.50143E-02  -2.90133E-01   8.11221E-01  -3.71428E-01   1.31812E+01  -3.70919E+00
  4.58321E-02  -2.90506E-01   8.24492E-01  -3.75073E-01   1.33245E+01  -3.57532E+00
  4.66633E-02  -2.90883E-01   8.37870E-01  -3.78579E-01   1.33951E+01  -3.43072E+00
  4.75078E-02  -2.91263E-01   8.51282E-01  -3.81935E-01   1.33898E+01  -3.27832E+00
  4.83658E-02  -2.91647E-01   8.64650E-01  -3.85135E-01   1.33055E+01  -3.12121E+00
  4.92371E-02  -2.92033E-01   8.77893E-01  -3.88177E-01   1.31390E+01  -2.96305E+00
  5.01216E-02  -2.92423E-01   8.90928E-01  -3.91062E-01   1.28877E+01  -2.80841E+00
  5.10190E-02  -2.92816E-01   9.03668E-01  -3.93794E-01   1.25496E+01  -2.66283E+00
  5.19289E-02  -2.93211E-01   9.16027E-01  -3.96387E-01   1.21228E+01  -2.53255E+00
  5.28510E-02  -2.93608E-01   9.27914E-01  -3.98859E-01   1.16061E+01  -2.42388E+00
  5.37848E-02  -2.94008E-01   9.39239E-01  -4.01235E-01   1.09987E+01  -2.34242E+00
  5.47295E-02  -2.94411E-01   9.49911E-01  -4.03544E-01   1.03011E+01  -2.29256E+00
  5.56846E-02  -2.94815E-01   9.59841E-01  -4.05820E-01   9.51524E+00  -2.27728E+00
  5.66492E-02  -2.95222E-01   9.68942E-01  -4.08099E-01   8.64538E+00  -2.29831E+00
  5.76225E-02  -2.95632E-01   9.77132E-01  -4.10417E-01   7.69857E+00  -2.35642E+00
  5.86035E-02  -2.96043E-01   9.84339E-01  -4.12811E-01   6.68461E+00  -2.45165E+00
  5.95912E-02  -2.96457E-01   9.90501E-01  -4.15320E-01   5.61587E+00  -2.58329E+00
  6.05845E-02  -2.96874E-01   9.95571E-01  -4.17978E-01   4.50680E+00  -2.74966E+00
  6.15823E-02  -2.97293E-01   9.99515E-01  -4.20819E-01   3.37351E+00  -2.94779E+00
  6.25835E-02  -2.97716E-01   1.00232E+00  -4.23874E-01   2.23339E+00  -3.17319E+00
  6.35869E-02  -2.98141E-01   1.00398E+00  -4.27166E-01   1.10478E+00  -3.41973E+00
  6.45915E-02  -2.98570E-01   1.00453E+00  -4.30713E-01   6.77627E-03  -3.67968E+00
  6.55960E-02  -2.99002E-01   1.00400E+00  -4.34525E-01  -1.04102E+00  -3.94364E+00
  6.65995E-02  -2.99439E-01   1.00245E+00  -4.38600E-01  -2.01882E+00  -4.20055E+00
  6.76009E-02  -2.99880E-01   9.99958E-01  -4.42926E-01  -2.90718E+00  -4.43767E+00
  6.85994E-02  -3.00325E-01   9.96631E-01  -4.47476E-01  -3.68763E+00  -4.64086E+00
  6.95941E-02  -3.00775E-01   9.92582E-01  -4.52208E-01  -4.34351E+00  -4.79524E+00
  7.05845E-02  -3.01229E-01   9.87944E-01  -4.57066E-01  -4.86051E+00  -4.88623E+00
  7.15700E-02  -3.01689E-01   9.82861E-01  -4.61980E-01  -5.22677E+00  -4.90060E+00
  7.25503E-02  -3.02153E-01   9.77490E-01  -4.66867E-01  -5.43261E+00  -4.82744E+00
  7.35250E-02  -3.02622E-01   9.71996E-01  -4.71635E-01  -5.47014E+00  -4.65865E+00
  7.44943E-02  -3.03096E-01   9.66550E-01  -4.76185E-01  -5.33327E+00  -4.38911E+00
  7.54581E-02  -3.03575E-01   9.61329E-01  -4.80413E-01  -5.01862E+00  -4.01675E+00
  7.64169E-02  -3.04057E-01   9.56513E-01  -4.84218E-01  -4.52734E+00  -3.54290E+00
  7.73711E-02  -3.04543E-01   9.52275E-01  -4.87499E-01  -3.86722E+00  -2.97273E+00
  7.83215E-02  -3.05032E-01   9.48778E-01  -4.90164E-01  -3.05444E+00  -2.31600E+00
  7.92687E-02  -3.05524E-01   9.46166E-01  -4.92131E-01  -2.11436E+00  -1.58753E+00
  8.02138E-02  -3.06016E-01   9.44550E-01  -4.93339E-01  -1.35533E+00  -1.01095E+00
  8.11578E-02  -3.06510E-01   9.43455E-01  -4.94153E-01  -8.33508E-01  -6.17737E-01
